timestamp,acc_x,acc_y,acc_z,mag_x,mag_y,mag_z,gra_x,gra_y,gra_z,gyr_x,gyr_y,gyr_z,linear_x,linear_y,linear_z,rot_x,rot_y,rot_z,light,pressure,proximity
1736674525564,0.72105,1.5670501,9.411,,,,,,,,,,,,,,,,,,
1736674525574,0.96795005,1.6099501,9.19305,,,,,,,,,,,,,,,,,,
1736674525584,1.07295,1.6150501,9.0400505,,,,,,,,,,,,,,,,,,
1736674525594,0.99405,1.5310501,8.974951,,,,,,,,,,,,,,,,,,
1736674525604,0.85800004,1.50495,8.956051,,,,,,,,,,,,,,,,,,
1736674525614,0.855,1.488,9.021001,,,,,,,,,,,,,,,,,,
1736674525624,0.96300006,1.4860501,9.102,,,,,,,,,,,,,,,,,,
1736674525634,1.1209501,1.50495,9.2029505,,,,,,,,,,,,,,,,,,
1736674525644,1.2070501,1.4950501,9.294001,,,,,,,,,,,,,,,,,,
1736674525655,1.1910001,1.43805,9.366,,,,,,,,,,,,,,,,,,
1736674525665,1.107,1.3590001,9.430051,,,,,,,,,,,,,,,,,,
1736674525675,1.0639501,1.3369501,9.47805,,,,,,,,,,,,,,,,,,
1736674525686,1.08,1.3080001,9.564,,,,,,,,,,,,,,,,,,
1736674525696,1.11195,1.27995,9.658051,,,,,,,,,,,,,,,,,,
1736674525705,1.143,1.28205,9.70995,,,,,,,,,,,,,,,,,,
1736674525715,1.0879501,1.24605,9.724951,,,,,,,,,,,,,,,,,,
1736674525725,1.02495,1.2600001,9.682051,,,,,,,,,,,,,,,,,,
1736674525735,0.96105003,1.27005,9.58605,,,,,,,,,,,,,,,,,,
1736674525746,0.88905007,1.31805,9.483001,,,,,,,,,,,,,,,,,,
1736674525756,0.882,1.3630501,9.40905,,,,,,,,,,,,,,,,,,
1736674525766,0.94605005,1.404,9.34395,,,,,,,,,,,,,,,,,,
1736674525776,0.9889501,1.4470501,9.315001,,,,,,,,,,,,,,,,,,
1736674525785,0.98205006,1.45395,9.282001,,,,,,,,,,,,,,,,,,
1736674525795,0.98700005,1.43295,9.16695,,,,,,,,,,,,,,,,,,
1736674525805,0.9580501,1.404,9.019051,,,,,,,,,,,,,,,,,,
1736674525815,0.92205006,1.41795,8.89605,,,,,,,,,,,,,,,,,,
1736674525825,0.94200003,1.47405,8.928,,,,,,,,,,,,,,,,,,
1736674525835,0.99195004,1.5120001,9.042001,,,,,,,,,,,,,,,,,,
1736674525845,0.98505,1.521,9.14295,,,,,,,,,,,,,,,,,,
1736674525855,0.90300006,1.4980501,9.24405,,,,,,,,,,,,,,,,,,
1736674525866,0.82695,1.4809501,9.32505,,,,,,,,,,,,,,,,,,
1736674525876,0.822,1.4640001,9.346951,,,,,,,,,,,,,,,,,,
1736674525886,0.84300005,1.4070001,9.33195,,,,,,,,,,,,,,,,,,
1736674525897,0.86295,1.3609501,9.26805,,,,,,,,,,,,,,,,,,
1736674525906,0.94395006,1.34895,9.25605,,,,,,,,,,,,,,,,,,
1736674525916,1.0540501,1.3729501,9.27705,,,,,,,,,,,,,,,,,,
1736674525926,1.08,1.3369501,9.259951,,,,,,,,,,,,,,,,,,
1736674525936,1.0710001,1.3110001,9.22395,,,,,,,,,,,,,,,,,,
1736674525946,1.07805,1.31295,9.196051,,,,,,,,,,,,,,,,,,
1736674525956,1.056,1.2889501,9.121051,,,,,,,,,,,,,,,,,,
1736674525966,1.02795,1.31805,9.076051,,,,,,,,,,,,,,,,,,
1736674525976,1.00905,1.3060501,9.177,,,,,,,,,,,,,,,,,,
1736674525986,1.03695,1.2600001,9.34395,,,,,,,,,,,,,,,,,,
1736674525996,1.04205,1.19595,9.495001,,,,,,,,,,,,,,,,,,
1736674526006,1.06095,1.1410501,9.562051,,,,,,,,,,,,,,,,,,
1736674526016,1.1329501,1.1380501,9.603001,,,,,,,,,,,,,,,,,,
1736674526026,1.19505,1.14795,9.538051,,,,,,,,,,,,,,,,,,
1736674526036,1.167,1.18605,9.415951,,,,,,,,,,,,,,,,,,
1736674526046,1.0900501,1.251,9.28905,,,,,,,,,,,,,,,,,,
1736674526056,1.0330501,1.3300501,9.17205,,,,,,,,,,,,,,,,,,
1736674526066,1.0350001,1.404,9.118951,,,,,,,,,,,,,,,,,,
1736674526076,1.0900501,1.4260501,9.121051,,,,,,,,,,,,,,,,,,
1736674526086,1.1209501,1.4260501,9.14295,,,,,,,,,,,,,,,,,,
1736674526096,1.0999501,1.4260501,9.141001,,,,,,,,,,,,,,,,,,
1736674526106,1.0849501,1.3990501,9.19095,,,,,,,,,,,,,,,,,,
1736674526117,1.107,1.3660501,9.196051,,,,,,,,,,,,,,,,,,
1736674526128,1.1190001,1.3249501,9.13605,,,,,,,,,,,,,,,,,,
1736674526137,1.11195,1.3060501,9.081,,,,,,,,,,,,,,,,,,
1736674526147,1.1020501,1.3110001,9.069,,,,,,,,,,,,,,,,,,
1736674526157,1.1550001,1.3230001,9.052051,,,,,,,,,,,,,,,,,,
1736674526167,1.1550001,1.26795,9.0379505,,,,,,,,,,,,,,,,,,
1736674526177,1.15005,1.2409501,8.986951,,,,,,,,,,,,,,,,,,
1736674526188,1.176,1.2529501,9.01605,,,,,,,,,,,,,,,,,,
1736674526198,1.19805,1.26795,9.05895,,,,,,,,,,,,,,,,,,
1736674526208,1.18605,1.2750001,9.078,,,,,,,,,,,,,,,,,,
1736674526218,1.1590501,1.26795,9.019051,,,,,,,,,,,,,,,,,,
1736674526227,1.131,1.2870001,8.96805,,,,,,,,,,,,,,,,,,
1736674526237,1.1329501,1.2870001,8.94705,,,,,,,,,,,,,,,,,,
1736674526247,1.1400001,1.299,8.920051,,,,,,,,,,,,,,,,,,
1736674526257,1.15005,1.31805,8.929951,,,,,,,,,,,,,,,,,,
1736674526268,1.1710501,1.31295,8.937,,,,,,,,,,,,,,,,,,
1736674526278,1.164,1.3230001,8.941951,,,,,,,,,,,,,,,,,,
1736674526287,1.18605,1.332,9.05895,,,,,,,,,,,,,,,,,,
1736674526297,1.21695,1.332,9.126,,,,,,,,,,,,,,,,,,
1736674526307,1.2859501,1.3590001,9.21195,,,,,,,,,,,,,,,,,,
1736674526317,1.26195,1.335,9.25605,,,,,,,,,,,,,,,,,,
1736674526328,1.18095,1.32,9.214951,,,,,,,,,,,,,,,,,,
1736674526338,1.0680001,1.2750001,9.14805,,,,,,,,,,,,,,,,,,
1736674526348,1.0009501,1.299,9.081,,,,,,,,,,,,,,,,,,
1736674526358,1.02795,1.335,9.076051,,,,,,,,,,,,,,,,,,
1736674526369,1.056,1.3230001,9.0709505,,,,,,,,,,,,,,,,,,
1736674526378,1.047,1.332,9.019051,,,,,,,,,,,,,,,,,,
1736674526389,1.0129501,1.3080001,8.932051,,,,,,,,,,,,,,,,,,
1736674526398,1.03995,1.3080001,8.83905,,,,,,,,,,,,,,,,,,
1736674526408,1.0999501,1.2750001,8.74995,,,,,,,,,,,,,,,,,,
1736674526418,1.1880001,1.2870001,8.740951,,,,,,,,,,,,,,,,,,
1736674526428,1.2550501,1.2940501,8.78895,,,,,,,,,,,,,,,,,,
1736674526438,1.2070501,1.28205,8.868,,,,,,,,,,,,,,,,,,
1736674526449,1.131,1.251,8.986951,,,,,,,,,,,,,,,,,,
1736674526459,1.1020501,1.26495,9.061951,,,,,,,,,,,,,,,,,,
1736674526469,1.07805,1.27695,9.073951,,,,,,,,,,,,,,,,,,
1736674526479,1.1040001,1.31595,9.094951,,,,,,,,,,,,,,,,,,
1736674526488,1.143,1.35105,9.114,,,,,,,,,,,,,,,,,,
1736674526498,1.1550001,1.3279501,9.14295,,,,,,,,,,,,,,,,,,
1736674526508,1.128,1.31805,9.1380005,,,,,,,,,,,,,,,,,,
1736674526518,1.11405,1.2889501,9.1380005,,,,,,,,,,,,,,,,,,
1736674526529,1.07295,1.28205,9.16695,,,,,,,,,,,,,,,,,,
1736674526539,1.10895,1.31595,9.196051,,,,,,,,,,,,,,,,,,
1736674526549,1.1910001,1.35405,9.174001,,,,,,,,,,,,,,,,,,
1736674526559,1.2049501,1.33905,9.196051,,,,,,,,,,,,,,,,,,
1736674526568,1.1689501,1.299,9.18105,,,,,,,,,,,,,,,,,,
1736674526580,1.1230501,1.30095,9.16905,,,,,,,,,,,,,,,,,,
1736674526589,1.0639501,1.27695,9.15705,,,,,,,,,,,,,,,,,,
1736674526599,1.0330501,1.299,9.1050005,,,,,,,,,,,,,,,,,,
1736674526610,1.06605,1.3279501,8.99505,,,,,,,,,,,,,,,,,,
1736674526620,1.1400001,1.383,8.83695,,,,,,,,,,,,,,,,,,
1736674526630,1.1520001,1.404,8.724,,,,,,,,,,,,,,,,,,
1736674526640,1.1230501,1.40205,8.66895,,,,,,,,,,,,,,,,,,
1736674526650,1.12605,1.3750501,8.667001,,,,,,,,,,,,,,,,,,
1736674526660,1.12605,1.371,8.7310505,,,,,,,,,,,,,,,,,,
1736674526669,1.12605,1.3920001,8.82495,,,,,,,,,,,,,,,,,,
1736674526679,1.128,1.42305,8.940001,,,,,,,,,,,,,,,,,,
1736674526689,1.12605,1.41795,8.962951,,,,,,,,,,,,,,,,,,
1736674526699,1.11195,1.3950001,8.95905,,,,,,,,,,,,,,,,,,
1736674526709,1.1520001,1.3800001,8.98005,,,,,,,,,,,,,,,,,,
1736674526719,1.2,1.416,9.009001,,,,,,,,,,,,,,,,,,
1736674526729,1.2030001,1.40205,9.0400505,,,,,,,,,,,,,,,,,,
1736674526739,1.14705,1.3470001,9.09795,,,,,,,,,,,,,,,,,,
1736674526749,1.0879501,1.28205,9.16005,,,,,,,,,,,,,,,,,,
1736674526759,1.0489501,1.2390001,9.259951,,,,,,,,,,,,,,,,,,
1736674526769,1.095,1.2390001,9.391951,,,,,,,,,,,,,,,,,,
1736674526779,1.128,1.2559501,9.4810505,,,,,,,,,,,,,,,,,,
1736674526790,1.1590501,1.23705,9.50895,,,,,,,,,,,,,,,,,,
1736674526800,1.1590501,1.2529501,9.47805,,,,,,,,,,,,,,,,,,
1736674526811,1.11195,1.2409501,9.35595,,,,,,,,,,,,,,,,,,
1736674526821,1.0900501,1.251,9.22395,,,,,,,,,,,,,,,,,,
1736674526830,1.13505,1.2750001,9.106951,,,,,,,,,,,,,,,,,,
1736674526840,1.176,1.27005,9.00195,,,,,,,,,,,,,,,,,,
1736674526850,1.19505,1.27995,8.941951,,,,,,,,,,,,,,,,,,
1736674526860,1.2070501,1.27695,8.937,,,,,,,,,,,,,,,,,,
1736674526870,1.23105,1.2720001,8.950951,,,,,,,,,,,,,,,,,,
1736674526880,1.23105,1.251,8.94705,,,,,,,,,,,,,,,,,,
1736674526890,1.22595,1.24395,8.96805,,,,,,,,,,,,,,,,,,
1736674526901,1.2070501,1.2270001,8.96595,,,,,,,,,,,,,,,,,,
1736674526911,1.16205,1.19805,8.956051,,,,,,,,,,,,,,,,,,
1736674526921,1.095,1.19805,9.00195,,,,,,,,,,,,,,,,,,
1736674526930,1.0489501,1.21305,9.02295,,,,,,,,,,,,,,,,,,
1736674526940,1.0680001,1.2220501,9.081,,,,,,,,,,,,,,,,,,
1736674526950,1.1040001,1.21695,9.141001,,,,,,,,,,,,,,,,,,
1736674526960,1.13505,1.2220501,9.17895,,,,,,,,,,,,,,,,,,
1736674526970,1.1400001,1.2049501,9.153001,,,,,,,,,,,,,,,,,,
1736674526980,1.092,1.21305,9.073951,,,,,,,,,,,,,,,,,,
1736674526991,1.044,1.263,8.98995,,,,,,,,,,,,,,,,,,
1736674527001,1.06605,1.3230001,8.928,,,,,,,,,,,,,,,,,,
1736674527010,1.0710001,1.3369501,8.941951,,,,,,,,,,,,,,,,,,
1736674527020,1.03995,1.31595,9.009001,,,,,,,,,,,,,,,,,,
1736674527030,1.03695,1.26495,9.129001,,,,,,,,,,,,,,,,,,
1736674527041,1.03695,1.2079501,9.23595,,,,,,,,,,,,,,,,,,
1736674527052,1.056,1.1550001,9.31305,,,,,,,,,,,,,,,,,,
1736674527061,1.0879501,1.143,9.354,,,,,,,,,,,,,,,,,,
1736674527071,1.0900501,1.1910001,9.306001,,,,,,,,,,,,,,,,,,
1736674527081,1.0540501,1.23705,9.174001,,,,,,,,,,,,,,,,,,
1736674527091,0.98505,1.2750001,9.02805,,,,,,,,,,,,,,,,,,
1736674527101,0.94905007,1.31805,8.904,,,,,,,,,,,,,,,,,,
1736674527111,0.97695005,1.31805,8.84895,,,,,,,,,,,,,,,,,,
1736674527121,1.07595,1.2940501,8.889001,,,,,,,,,,,,,,,,,,
1736674527131,1.1209501,1.26795,8.96805,,,,,,,,,,,,,,,,,,
1736674527141,1.16205,1.24395,9.069,,,,,,,,,,,,,,,,,,
1736674527151,1.164,1.24605,9.10005,,,,,,,,,,,,,,,,,,
1736674527162,1.1520001,1.23405,9.102,,,,,,,,,,,,,,,,,,
1736674527171,1.14495,1.2409501,9.114,,,,,,,,,,,,,,,,,,
1736674527181,1.1400001,1.26795,9.102,,,,,,,,,,,,,,,,,,
1736674527191,1.12605,1.296,9.085951,,,,,,,,,,,,,,,,,,
1736674527201,1.07805,1.251,9.10005,,,,,,,,,,,,,,,,,,
1736674527212,1.0350001,1.22895,9.165,,,,,,,,,,,,,,,,,,
1736674527222,1.03005,1.215,9.238951,,,,,,,,,,,,,,,,,,
1736674527231,1.0879501,1.15005,9.262951,,,,,,,,,,,,,,,,,,
1736674527241,1.10895,1.131,9.241051,,,,,,,,,,,,,,,,,,
1736674527251,1.0999501,1.16205,9.106951,,,,,,,,,,,,,,,,,,
1736674527261,1.143,1.1740501,8.961,,,,,,,,,,,,,,,,,,
1736674527272,1.1689501,1.24605,8.85105,,,,,,,,,,,,,,,,,,
1736674527282,1.18605,1.2940501,8.817,,,,,,,,,,,,,,,,,,
1736674527293,1.18305,1.27695,8.80305,,,,,,,,,,,,,,,,,,
1736674527303,1.1910001,1.2870001,8.88195,,,,,,,,,,,,,,,,,,
1736674527312,1.2,1.28205,9.049951,,,,,,,,,,,,,,,,,,
1736674527322,1.19295,1.2390001,9.17205,,,,,,,,,,,,,,,,,,
1736674527333,1.18095,1.1890501,9.214951,,,,,,,,,,,,,,,,,,
1736674527343,1.16205,1.16205,9.17205,,,,,,,,,,,,,,,,,,
1736674525606,,,,-15.95625,-0.6,-27.54375,,,,,,,,,,,,,,,
1736674525626,,,,-15.6,-0.1875,-27.900002,,,,,,,,,,,,,,,
1736674525647,,,,-15.6,0.0,-27.712502,,,,,,,,,,,,,,,
1736674525667,,,,-15.543751,0.0,-27.900002,,,,,,,,,,,,,,,
1736674525687,,,,-15.543751,0.24375,-28.25625,,,,,,,,,,,,,,,
1736674525706,,,,-15.656251,0.112500004,-28.0125,,,,,,,,,,,,,,,
1736674525726,,,,-15.4125,0.24375,-28.44375,,,,,,,,,,,,,,,
1736674525746,,,,-15.543751,0.35625002,-28.612501,,,,,,,,,,,,,,,
1736674525766,,,,-15.3,0.0,-28.556252,,,,,,,,,,,,,,,
1736674525786,,,,-15.056251,-0.24375,-28.312502,,,,,,,,,,,,,,,
1736674525806,,,,-15.243751,-0.24375,-28.556252,,,,,,,,,,,,,,,
1736674525826,,,,-15.243751,-0.35625002,-28.44375,,,,,,,,,,,,,,,
1736674525846,,,,-15.543751,-0.056250002,-28.25625,,,,,,,,,,,,,,,
1736674525866,,,,-16.143751,-0.056250002,-28.44375,,,,,,,,,,,,,,,
1736674525886,,,,-16.25625,-0.24375,-28.0125,,,,,,,,,,,,,,,
1736674525906,,,,-16.2,-0.056250002,-28.25625,,,,,,,,,,,,,,,
1736674525926,,,,-16.2,-0.1875,-28.0125,,,,,,,,,,,,,,,
1736674525947,,,,-16.0125,-0.24375,-28.143751,,,,,,,,,,,,,,,
1736674525966,,,,-15.900001,-0.056250002,-28.2,,,,,,,,,,,,,,,
1736674525986,,,,-15.6,0.112500004,-27.956251,,,,,,,,,,,,,,,
1736674526006,,,,-15.543751,0.0,-28.0125,,,,,,,,,,,,,,,
1736674526026,,,,-15.4125,-0.056250002,-27.712502,,,,,,,,,,,,,,,
1736674526046,,,,-15.6,-0.24375,-28.2,,,,,,,,,,,,,,,
1736674526066,,,,-15.900001,-0.6,-28.2,,,,,,,,,,,,,,,
1736674526086,,,,-15.95625,-0.4875,-28.556252,,,,,,,,,,,,,,,
1736674526106,,,,-16.2,-0.24375,-28.612501,,,,,,,,,,,,,,,
1736674526127,,,,-16.0125,0.0,-27.956251,,,,,,,,,,,,,,,
1736674526146,,,,-16.25625,0.056250002,-27.712502,,,,,,,,,,,,,,,
1736674526166,,,,-16.2,-0.1875,-27.35625,,,,,,,,,,,,,,,
1736674526187,,,,-16.2,-0.4875,-27.300001,,,,,,,,,,,,,,,
1736674526207,,,,-16.5,-0.7875,-26.94375,,,,,,,,,,,,,,,
1736674526226,,,,-16.44375,-0.84375006,-26.75625,,,,,,,,,,,,,,,
1736674526246,,,,-16.25625,-0.65625,-26.812502,,,,,,,,,,,,,,,
1736674526267,,,,-16.556252,-0.6,-27.000002,,,,,,,,,,,,,,,
1736674526286,,,,-16.5,-0.54375005,-27.6,,,,,,,,,,,,,,,
1736674526307,,,,-16.44375,-0.6,-27.54375,,,,,,,,,,,,,,,
1736674526326,,,,-16.3125,-0.84375006,-27.056252,,,,,,,,,,,,,,,
1736674526346,,,,-15.900001,-0.84375006,-27.000002,,,,,,,,,,,,,,,
1736674526367,,,,-15.712501,-0.65625,-26.812502,,,,,,,,,,,,,,,
1736674526386,,,,-15.712501,-0.4875,-27.000002,,,,,,,,,,,,,,,
1736674526407,,,,-16.2,-0.54375005,-27.112501,,,,,,,,,,,,,,,
1736674526426,,,,-16.143751,-0.54375005,-27.056252,,,,,,,,,,,,,,,
1736674526446,,,,-15.900001,-0.95625,-26.94375,,,,,,,,,,,,,,,
1736674526466,,,,-15.900001,-1.25625,-27.000002,,,,,,,,,,,,,,,
1736674526486,,,,-16.0125,-1.25625,-27.300001,,,,,,,,,,,,,,,
1736674526507,,,,-15.95625,-1.5,-27.243752,,,,,,,,,,,,,,,
1736674526526,,,,-16.143751,-1.6875001,-27.243752,,,,,,,,,,,,,,,
1736674526546,,,,-16.143751,-1.9875001,-27.000002,,,,,,,,,,,,,,,
1736674526567,,,,-15.656251,-2.04375,-26.7,,,,,,,,,,,,,,,
1736674526587,,,,-15.712501,-2.34375,-26.7,,,,,,,,,,,,,,,
1736674526606,,,,-16.0125,-2.15625,-26.812502,,,,,,,,,,,,,,,
1736674526627,,,,-16.143751,-2.1000001,-26.75625,,,,,,,,,,,,,,,
1736674526647,,,,-16.25625,-2.1000001,-27.000002,,,,,,,,,,,,,,,
1736674526666,,,,-16.2,-2.04375,-26.7,,,,,,,,,,,,,,,
1736674526686,,,,-16.143751,-2.1000001,-26.7,,,,,,,,,,,,,,,
1736674526707,,,,-16.0125,-1.9875001,-26.812502,,,,,,,,,,,,,,,
1736674526726,,,,-16.3125,-2.1000001,-26.156252,,,,,,,,,,,,,,,
1736674526747,,,,-16.5,-2.15625,-26.156252,,,,,,,,,,,,,,,
1736674526766,,,,-16.2,-2.34375,-25.612501,,,,,,,,,,,,,,,
1736674526787,,,,-16.2,-2.5875,-25.25625,,,,,,,,,,,,,,,
1736674526807,,,,-15.843751,-2.5875,-25.312502,,,,,,,,,,,,,,,
1736674526826,,,,-15.6,-2.6437502,-25.25625,,,,,,,,,,,,,,,
1736674526846,,,,-16.0125,-2.9437501,-25.612501,,,,,,,,,,,,,,,
1736674526866,,,,-16.2,-3.1875002,-25.85625,,,,,,,,,,,,,,,
1736674526886,,,,-16.2,-3.35625,-26.156252,,,,,,,,,,,,,,,
1736674526906,,,,-16.3125,-3.3000002,-26.400002,,,,,,,,,,,,,,,
1736674526926,,,,-16.0125,-3.54375,-25.9125,,,,,,,,,,,,,,,
1736674526946,,,,-16.2,-3.6562502,-25.556252,,,,,,,,,,,,,,,
1736674526966,,,,-16.5,-3.6562502,-24.900002,,,,,,,,,,,,,,,
1736674526986,,,,-16.143751,-3.7875001,-24.6,,,,,,,,,,,,,,,
1736674527006,,,,-16.143751,-3.54375,-24.54375,,,,,,,,,,,,,,,
1736674527026,,,,-15.656251,-3.6000001,-24.6,,,,,,,,,,,,,,,
1736674527047,,,,-15.243751,-3.6562502,-24.900002,,,,,,,,,,,,,,,
1736674527067,,,,-15.712501,-4.14375,-24.843752,,,,,,,,,,,,,,,
1736674527086,,,,-15.843751,-4.4437504,-25.25625,,,,,,,,,,,,,,,
1736674527106,,,,-15.900001,-4.8,-25.612501,,,,,,,,,,,,,,,
1736674527127,,,,-15.95625,-5.2875004,-25.800001,,,,,,,,,,,,,,,
1736674527146,,,,-15.656251,-5.2875004,-26.1,,,,,,,,,,,,,,,
1736674527166,,,,-15.356251,-5.2875004,-26.04375,,,,,,,,,,,,,,,
1736674527187,,,,-15.656251,-5.34375,-25.85625,,,,,,,,,,,,,,,
1736674527207,,,,-15.356251,-5.4,-26.04375,,,,,,,,,,,,,,,
1736674527226,,,,-15.656251,-5.8875003,-25.85625,,,,,,,,,,,,,,,
1736674527247,,,,-16.143751,-6.4875,-25.800001,,,,,,,,,,,,,,,
1736674527266,,,,-15.900001,-6.8437505,-25.743752,,,,,,,,,,,,,,,
1736674527286,,,,-15.95625,-7.4437504,-25.743752,,,,,,,,,,,,,,,
1736674527307,,,,-15.900001,-7.8,-25.800001,,,,,,,,,,,,,,,
1736674527327,,,,-15.356251,-7.6875005,-25.500002,,,,,,,,,,,,,,,
1736674527346,,,,-15.243751,-7.55625,-25.612501,,,,,,,,,,,,,,,
1736674525574,,,,,,,0.908275,1.605509,9.631599,,,,,,,,,,,,
1736674525584,,,,,,,0.904983,1.609225,9.631289,,,,,,,,,,,,
1736674525594,,,,,,,0.923847,1.613438,9.628796,,,,,,,,,,,,
1736674525604,,,,,,,0.943532,1.620785,9.625653,,,,,,,,,,,,
1736674525614,,,,,,,0.94134,1.613226,9.627135,,,,,,,,,,,,
1736674525624,,,,,,,0.941063,1.604845,9.628564,,,,,,,,,,,,
1736674525634,,,,,,,0.962963,1.589842,9.628886,,,,,,,,,,,,
1736674525644,,,,,,,0.969565,1.573939,9.630836,,,,,,,,,,,,
1736674525655,,,,,,,0.992632,1.550404,9.632302,,,,,,,,,,,,
1736674525665,,,,,,,1.016479,1.53432,9.632391,,,,,,,,,,,,
1736674525675,,,,,,,1.024121,1.504046,9.636356,,,,,,,,,,,,
1736674525686,,,,,,,1.034996,1.479361,9.639014,,,,,,,,,,,,
1736674525696,,,,,,,1.043383,1.449207,9.642691,,,,,,,,,,,,
1736674525705,,,,,,,1.048922,1.428067,9.645245,,,,,,,,,,,,
1736674525715,,,,,,,1.052913,1.405542,9.648119,,,,,,,,,,,,
1736674525726,,,,,,,1.061486,1.392422,9.649083,,,,,,,,,,,,
1736674525736,,,,,,,1.056141,1.38483,9.650762,,,,,,,,,,,,
1736674525745,,,,,,,1.057565,1.37866,9.651488,,,,,,,,,,,,
1736674525755,,,,,,,1.049395,1.386623,9.651239,,,,,,,,,,,,
1736674525766,,,,,,,1.041831,1.389715,9.651614,,,,,,,,,,,,
1736674525776,,,,,,,1.045469,1.405095,9.648993,,,,,,,,,,,,
1736674525785,,,,,,,1.045437,1.414371,9.647642,,,,,,,,,,,,
1736674525795,,,,,,,1.053082,1.426406,9.645038,,,,,,,,,,,,
1736674525806,,,,,,,1.060619,1.43607,9.642776,,,,,,,,,,,,
1736674525816,,,,,,,1.064536,1.445149,9.64099,,,,,,,,,,,,
1736674525826,,,,,,,1.065927,1.447774,9.640443,,,,,,,,,,,,
1736674525836,,,,,,,1.064902,1.456844,9.639191,,,,,,,,,,,,
1736674525845,,,,,,,1.058299,1.462044,9.639128,,,,,,,,,,,,
1736674525855,,,,,,,1.046542,1.463698,9.640162,,,,,,,,,,,,
1736674525866,,,,,,,1.045802,1.468948,9.639442,,,,,,,,,,,,
1736674525876,,,,,,,1.032035,1.4669,9.641239,,,,,,,,,,,,
1736674525887,,,,,,,1.023454,1.467904,9.642,,,,,,,,,,,,
1736674525897,,,,,,,1.022479,1.46029,9.64326,,,,,,,,,,,,
1736674525906,,,,,,,1.019277,1.456922,9.644108,,,,,,,,,,,,
1736674525916,,,,,,,1.033171,1.451615,9.643429,,,,,,,,,,,,
1736674525926,,,,,,,1.035319,1.445034,9.644189,,,,,,,,,,,,
1736674525936,,,,,,,1.049076,1.435999,9.644052,,,,,,,,,,,,
1736674525946,,,,,,,1.062882,1.428959,9.643585,,,,,,,,,,,,
1736674525956,,,,,,,1.075437,1.419548,9.643582,,,,,,,,,,,,
1736674525966,,,,,,,1.086545,1.411327,9.643543,,,,,,,,,,,,
1736674525976,,,,,,,1.085861,1.403373,9.644784,,,,,,,,,,,,
1736674525986,,,,,,,1.082516,1.397974,9.645943,,,,,,,,,,,,
1736674525996,,,,,,,1.074579,1.378112,9.649686,,,,,,,,,,,,
1736674526006,,,,,,,1.06974,1.368558,9.651585,,,,,,,,,,,,
1736674526016,,,,,,,1.074758,1.348149,9.6539,,,,,,,,,,,,
1736674526026,,,,,,,1.077935,1.332065,9.655779,,,,,,,,,,,,
1736674526036,,,,,,,1.094929,1.324508,9.654904,,,,,,,,,,,,
1736674526046,,,,,,,1.113682,1.314391,9.654142,,,,,,,,,,,,
1736674526056,,,,,,,1.120001,1.325401,9.651905,,,,,,,,,,,,
1736674526067,,,,,,,1.128012,1.326257,9.650855,,,,,,,,,,,,
1736674526077,,,,,,,1.134997,1.343351,9.647671,,,,,,,,,,,,
1736674526087,,,,,,,1.135369,1.356314,9.645815,,,,,,,,,,,,
1736674526097,,,,,,,1.141003,1.368956,9.643364,,,,,,,,,,,,
1736674526106,,,,,,,1.148011,1.380283,9.640915,,,,,,,,,,,,
1736674526117,,,,,,,1.153064,1.384851,9.639658,,,,,,,,,,,,
1736674526127,,,,,,,1.156411,1.39277,9.638116,,,,,,,,,,,,
1736674526137,,,,,,,1.162683,1.393872,9.637203,,,,,,,,,,,,
1736674526148,,,,,,,1.167033,1.396359,9.636317,,,,,,,,,,,,
1736674526158,,,,,,,1.17401,1.399959,9.634948,,,,,,,,,,,,
1736674526167,,,,,,,1.175215,1.402449,9.634439,,,,,,,,,,,,
1736674526177,,,,,,,1.181145,1.399618,9.634126,,,,,,,,,,,,
1736674526187,,,,,,,1.185303,1.398609,9.633759,,,,,,,,,,,,
1736674526197,,,,,,,1.192032,1.397008,9.633162,,,,,,,,,,,,
1736674526207,,,,,,,1.19809,1.394614,9.632758,,,,,,,,,,,,
1736674526217,,,,,,,1.203841,1.393464,9.632206,,,,,,,,,,,,
1736674526227,,,,,,,1.211033,1.392017,9.631515,,,,,,,,,,,,
1736674526237,,,,,,,1.213465,1.393461,9.631,,,,,,,,,,,,
1736674526247,,,,,,,1.215231,1.394101,9.630685,,,,,,,,,,,,
1736674526258,,,,,,,1.218613,1.397083,9.629825,,,,,,,,,,,,
1736674526267,,,,,,,1.220186,1.397272,9.629598,,,,,,,,,,,,
1736674526277,,,,,,,1.222809,1.398248,9.629125,,,,,,,,,,,,
1736674526288,,,,,,,1.225475,1.396737,9.629004,,,,,,,,,,,,
1736674526298,,,,,,,1.229544,1.393136,9.629007,,,,,,,,,,,,
1736674526307,,,,,,,1.230839,1.389728,9.629334,,,,,,,,,,,,
1736674526317,,,,,,,1.236633,1.38419,9.62939,,,,,,,,,,,,
1736674526327,,,,,,,1.245519,1.383438,9.628353,,,,,,,,,,,,
1736674526337,,,,,,,1.236712,1.378452,9.630203,,,,,,,,,,,,
1736674526349,,,,,,,1.238061,1.379127,9.629932,,,,,,,,,,,,
1736674526359,,,,,,,1.226162,1.385019,9.630608,,,,,,,,,,,,
1736674526368,,,,,,,1.212558,1.388903,9.631773,,,,,,,,,,,,
1736674526378,,,,,,,1.20542,1.397271,9.631457,,,,,,,,,,,,
1736674526388,,,,,,,1.20043,1.403513,9.631173,,,,,,,,,,,,
1736674526398,,,,,,,1.198425,1.409359,9.630569,,,,,,,,,,,,
1736674526409,,,,,,,1.193861,1.41103,9.630891,,,,,,,,,,,,
1736674526419,,,,,,,1.206274,1.409758,9.629531,,,,,,,,,,,,
1736674526429,,,,,,,1.205899,1.405077,9.630262,,,,,,,,,,,,
1736674526439,,,,,,,1.211809,1.398079,9.630538,,,,,,,,,,,,
1736674526448,,,,,,,1.221829,1.393422,9.629948,,,,,,,,,,,,
1736674526458,,,,,,,1.214397,1.383891,9.632262,,,,,,,,,,,,
1736674526468,,,,,,,1.213115,1.376163,9.63353,,,,,,,,,,,,
1736674526478,,,,,,,1.209549,1.375414,9.634086,,,,,,,,,,,,
1736674526488,,,,,,,1.203631,1.373362,9.63512,,,,,,,,,,,,
1736674526498,,,,,,,1.202867,1.376021,9.634837,,,,,,,,,,,,
1736674526508,,,,,,,1.200328,1.381699,9.63434,,,,,,,,,,,,
1736674526519,,,,,,,1.195011,1.381703,9.635,,,,,,,,,,,,
1736674526528,,,,,,,1.192479,1.384149,9.634964,,,,,,,,,,,,
1736674526538,,,,,,,1.188931,1.384834,9.635304,,,,,,,,,,,,
1736674526548,,,,,,,1.18354,1.382033,9.636369,,,,,,,,,,,,
1736674526558,,,,,,,1.190518,1.383815,9.635253,,,,,,,,,,,,
1736674526568,,,,,,,1.195732,1.387102,9.634135,,,,,,,,,,,,
1736674526579,,,,,,,1.194456,1.38638,9.634398,,,,,,,,,,,,
1736674526590,,,,,,,1.198345,1.386278,9.633929,,,,,,,,,,,,
1736674526600,,,,,,,1.193211,1.387982,9.63432,,,,,,,,,,,,
1736674526609,,,,,,,1.193767,1.387037,9.634389,,,,,,,,,,,,
1736674526619,,,,,,,1.205065,1.39933,9.631203,,,,,,,,,,,,
1736674526629,,,,,,,1.205571,1.402955,9.630613,,,,,,,,,,,,
1736674526639,,,,,,,1.211795,1.416376,9.627867,,,,,,,,,,,,
1736674526650,,,,,,,1.216103,1.426394,9.625846,,,,,,,,,,,,
1736674526660,,,,,,,1.214563,1.43093,9.625366,,,,,,,,,,,,
1736674526670,,,,,,,1.212709,1.435294,9.624949,,,,,,,,,,,,
1736674526680,,,,,,,1.209328,1.438945,9.624829,,,,,,,,,,,,
1736674526690,,,,,,,1.210606,1.440533,9.624433,,,,,,,,,,,,
1736674526700,,,,,,,1.211991,1.439689,9.624383,,,,,,,,,,,,
1736674526709,,,,,,,1.215155,1.439884,9.623953,,,,,,,,,,,,
1736674526719,,,,,,,1.222989,1.438165,9.62322,,,,,,,,,,,,
1736674526729,,,,,,,1.224772,1.433374,9.623707,,,,,,,,,,,,
1736674526739,,,,,,,1.222727,1.424092,9.625346,,,,,,,,,,,,
1736674526749,,,,,,,1.224852,1.420787,9.625564,,,,,,,,,,,,
1736674526759,,,,,,,1.209504,1.401049,9.630396,,,,,,,,,,,,
1736674526769,,,,,,,1.198713,1.388904,9.633504,,,,,,,,,,,,
1736674526779,,,,,,,1.19038,1.373257,9.636779,,,,,,,,,,,,
1736674526790,,,,,,,1.18316,1.360761,9.639441,,,,,,,,,,,,
1736674526799,,,,,,,1.184568,1.352216,9.640471,,,,,,,,,,,,
1736674526810,,,,,,,1.189037,1.345087,9.64092,,,,,,,,,,,,
1736674526820,,,,,,,1.192216,1.344803,9.640565,,,,,,,,,,,,
1736674526830,,,,,,,1.195391,1.342864,9.640442,,,,,,,,,,,,
1736674526840,,,,,,,1.206108,1.347808,9.638417,,,,,,,,,,,,
1736674526851,,,,,,,1.209048,1.351082,9.637591,,,,,,,,,,,,
1736674526861,,,,,,,1.218784,1.355591,9.635731,,,,,,,,,,,,
1736674526871,,,,,,,1.225823,1.358966,9.634363,,,,,,,,,,,,
1736674526881,,,,,,,1.235076,1.358228,9.633287,,,,,,,,,,,,
1736674526890,,,,,,,1.243704,1.358655,9.632116,,,,,,,,,,,,
1736674526900,,,,,,,1.249044,1.354167,9.632056,,,,,,,,,,,,
1736674526910,,,,,,,1.255131,1.351158,9.631687,,,,,,,,,,,,
1736674526920,,,,,,,1.247477,1.343597,9.633739,,,,,,,,,,,,
1736674526930,,,,,,,1.245979,1.336449,9.634927,,,,,,,,,,,,
1736674526940,,,,,,,1.234034,1.330469,9.637291,,,,,,,,,,,,
1736674526951,,,,,,,1.221525,1.325117,9.639622,,,,,,,,,,,,
1736674526960,,,,,,,1.216573,1.319914,9.640963,,,,,,,,,,,,
1736674526970,,,,,,,1.211973,1.31653,9.642004,,,,,,,,,,,,
1736674526980,,,,,,,1.210278,1.31494,9.642433,,,,,,,,,,,,
1736674526991,,,,,,,1.213792,1.312179,9.642368,,,,,,,,,,,,
1736674527001,,,,,,,1.211611,1.322076,9.641291,,,,,,,,,,,,
1736674527010,,,,,,,1.204333,1.323109,9.64206,,,,,,,,,,,,
1736674527020,,,,,,,1.193305,1.326283,9.642997,,,,,,,,,,,,
1736674527031,,,,,,,1.184168,1.330081,9.6436,,,,,,,,,,,,
1736674527042,,,,,,,1.169446,1.317863,9.647073,,,,,,,,,,,,
1736674527051,,,,,,,1.158168,1.313774,9.648991,,,,,,,,,,,,
1736674527061,,,,,,,1.153428,1.298698,9.6516,,,,,,,,,,,,
1736674527071,,,,,,,1.151387,1.289591,9.653064,,,,,,,,,,,,
1736674527081,,,,,,,1.154411,1.292921,9.652257,,,,,,,,,,,,
1736674527092,,,,,,,1.160293,1.292502,9.651608,,,,,,,,,,,,
1736674527102,,,,,,,1.155273,1.309353,9.649939,,,,,,,,,,,,
1736674527112,,,,,,,1.149237,1.318708,9.649386,,,,,,,,,,,,
1736674527122,,,,,,,1.149148,1.32915,9.647963,,,,,,,,,,,,
1736674527131,,,,,,,1.137317,1.33959,9.647922,,,,,,,,,,,,
1736674527141,,,,,,,1.140286,1.337381,9.647877,,,,,,,,,,,,
1736674527151,,,,,,,1.14191,1.337398,9.647682,,,,,,,,,,,,
1736674527161,,,,,,,1.147016,1.331375,9.647911,,,,,,,,,,,,
1736674527172,,,,,,,1.155126,1.325898,9.647697,,,,,,,,,,,,
1736674527182,,,,,,,1.161567,1.322498,9.647391,,,,,,,,,,,,
1736674527192,,,,,,,1.167469,1.317216,9.647401,,,,,,,,,,,,
1736674527202,,,,,,,1.165256,1.314664,9.648017,,,,,,,,,,,,
1736674527211,,,,,,,1.165366,1.318223,9.647517,,,,,,,,,,,,
1736674527221,,,,,,,1.153582,1.314926,9.649384,,,,,,,,,,,,
1736674527231,,,,,,,1.144766,1.316605,9.650204,,,,,,,,,,,,
1736674527241,,,,,,,1.146887,1.310949,9.650723,,,,,,,,,,,,
1736674527251,,,,,,,1.150875,1.308501,9.650579,,,,,,,,,,,,
1736674527261,,,,,,,1.163816,1.311658,9.648599,,,,,,,,,,,,
1736674527272,,,,,,,1.168675,1.310682,9.648144,,,,,,,,,,,,
1736674527282,,,,,,,1.181906,1.322774,9.644882,,,,,,,,,,,,
1736674527293,,,,,,,1.189975,1.325976,9.643451,,,,,,,,,,,,
1736674527303,,,,,,,1.195527,1.328969,9.64235,,,,,,,,,,,,
1736674527313,,,,,,,1.198761,1.329612,9.64186,,,,,,,,,,,,
1736674527323,,,,,,,1.1984,1.321065,9.643081,,,,,,,,,,,,
1736674527332,,,,,,,1.203064,1.318489,9.642853,,,,,,,,,,,,
1736674527342,,,,,,,1.206379,1.305265,9.644237,,,,,,,,,,,,
1736674527352,,,,,,,1.213621,1.296567,9.644502,,,,,,,,,,,,
1736674527362,,,,,,,1.228074,1.294455,9.642956,,,,,,,,,,,,
1736674525585,,,,,,,,,,0.0422125,-0.1071125,0.0495,,,,,,,,,
1736674525595,,,,,,,,,,0.0188375,-0.0496375,0.0240625,,,,,,,,,
1736674525605,,,,,,,,,,-0.011,-0.0103124995,0.0176,,,,,,,,,
1736674525615,,,,,,,,,,-0.0471625,0.002475,0.03575,,,,,,,,,
1736674525625,,,,,,,,,,-0.085525,-0.00385,0.059125,,,,,,,,,
1736674525635,,,,,,,,,,-0.1194875,-0.0114124995,0.0697125,,,,,,,,,
1736674525645,,,,,,,,,,-0.143,-0.0092124995,0.058025,,,,,,,,,
1736674525656,,,,,,,,,,-0.1546875,-0.0081124995,0.036849998,,,,,,,,,
1736674525666,,,,,,,,,,-0.1610125,-0.0177375,0.0176,,,,,,,,,
1736674525676,,,,,,,,,,-0.16005,-0.0177375,0.012375,,,,,,,,,
1736674525686,,,,,,,,,,-0.1535875,-0.015675,0.009075,,,,,,,,,
1736674525696,,,,,,,,,,-0.13653749,-0.0188375,-0.0026125,,,,,,,,,
1736674525705,,,,,,,,,,-0.1078,-0.0177375,-0.0185625,,,,,,,,,
1736674525715,,,,,,,,,,-0.069575,-0.0166375,-0.03025,,,,,,,,,
1736674525725,,,,,,,,,,-0.0248875,-0.0199375,-0.037675,,,,,,,,,
1736674525735,,,,,,,,,,0.014575,-0.031625,-0.0408375,,,,,,,,,
1736674525746,,,,,,,,,,0.0433125,-0.047575,-0.0345125,,,,,,,,,
1736674525756,,,,,,,,,,0.0603625,-0.0529375,-0.022824999,,,,,,,,,
1736674525766,,,,,,,,,,0.0677875,-0.0496375,-0.0132,,,,,,,,,
1736674525776,,,,,,,,,,0.062425,-0.055,-0.0111375,,,,,,,,,
1736674525786,,,,,,,,,,0.0539,-0.062425,-0.0185625,,,,,,,,,
1736674525796,,,,,,,,,,0.0400125,-0.0900625,-0.0281875,,,,,,,,,
1736674525805,,,,,,,,,,0.022,-0.112475,-0.0345125,,,,,,,,,
1736674525815,,,,,,,,,,6.875E-4,-0.1007875,-0.038775,,,,,,,,,
1736674525825,,,,,,,,,,-0.02585,-0.055,-0.0334125,,,,,,,,,
1736674525835,,,,,,,,,,-0.051425,-0.0028875,-0.0270875,,,,,,,,,
1736674525845,,,,,,,,,,-0.066275,0.020624999,-0.0270875,,,,,,,,,
1736674525855,,,,,,,,,,-0.0738375,0.015262499,-0.023924999,,,,,,,,,
1736674525865,,,,,,,,,,-0.069575,-0.00385,-0.0174625,,,,,,,,,
1736674525875,,,,,,,,,,-0.05995,-0.031625,-4.125E-4,,,,,,,,,
1736674525887,,,,,,,,,,-0.0460625,-0.064625,0.0176,,,,,,,,,
1736674525897,,,,,,,,,,-0.0323125,-0.094325,0.034649998,,,,,,,,,
1736674525907,,,,,,,,,,-0.02585,-0.0911625,0.0517,,,,,,,,,
1736674525917,,,,,,,,,,-0.0226875,-0.0677875,0.0559625,,,,,,,,,
1736674525926,,,,,,,,,,-0.0237875,-0.0570625,0.0517,,,,,,,,,
1736674525936,,,,,,,,,,-0.0237875,-0.061325,0.0400125,,,,,,,,,
1736674525946,,,,,,,,,,-0.0312125,-0.07095,0.0303875,,,,,,,,,
1736674525956,,,,,,,,,,-0.037675,-0.078375,0.0207625,,,,,,,,,
1736674525966,,,,,,,,,,-0.0460625,-0.063525,0.0165,,,,,,,,,
1736674525976,,,,,,,,,,-0.0471625,-0.012375,0.0198,,,,,,,,,
1736674525986,,,,,,,,,,-0.050325,0.0451,0.0303875,,,,,,,,,
1736674525996,,,,,,,,,,-0.0429,0.069575,0.036849998,,,,,,,,,
1736674526006,,,,,,,,,,-0.02915,0.0534875,0.034649998,,,,,,,,,
1736674526016,,,,,,,,,,-0.0121,0.0163625,0.0303875,,,,,,,,,
1736674526026,,,,,,,,,,0.00605,-0.030524999,0.0165,,,,,,,,,
1736674526036,,,,,,,,,,0.0231,-0.07095,-0.0037125,,,,,,,,,
1736674526046,,,,,,,,,,0.0358875,-0.0933625,-0.0174625,,,,,,,,,
1736674526056,,,,,,,,,,0.036849998,-0.0922625,-0.0185625,,,,,,,,,
1736674526066,,,,,,,,,,0.029424999,-0.07315,-0.0132,,,,,,,,,
1736674526076,,,,,,,,,,0.0188375,-0.0529375,-0.0026125,,,,,,,,,
1736674526086,,,,,,,,,,0.0103124995,-0.04015,0.00275,,,,,,,,,
1736674526096,,,,,,,,,,0.0028875,-0.03795,0.00275,,,,,,,,,
1736674526107,,,,,,,,,,0.0017875,-0.036849998,0.0081124995,,,,,,,,,
1736674526118,,,,,,,,,,0.00385,-0.04015,0.0133375,,,,,,,,,
1736674526128,,,,,,,,,,0.0114124995,-0.046475,0.0144375,,,,,,,,,
1736674526138,,,,,,,,,,0.0188375,-0.0422125,0.0133375,,,,,,,,,
1736674526147,,,,,,,,,,0.0240625,-0.0273625,0.0155375,,,,,,,,,
1736674526157,,,,,,,,,,0.030524999,-0.014575,0.0229625,,,,,,,,,
1736674526167,,,,,,,,,,0.0347875,-0.0114124995,0.0240625,,,,,,,,,
1736674526177,,,,,,,,,,0.0358875,-0.00715,0.0187,,,,,,,,,
1736674526188,,,,,,,,,,0.0336875,0.003575,0.0144375,,,,,,,,,
1736674526198,,,,,,,,,,0.029424999,0.0099,0.009075,,,,,,,,,
1736674526207,,,,,,,,,,0.0262625,-0.00495,5.5E-4,,,,,,,,,
1736674526217,,,,,,,,,,0.0231,-0.0242,-0.004675,,,,,,,,,
1736674526227,,,,,,,,,,0.0209,-0.0262625,-4.125E-4,,,,,,,,,
1736674526237,,,,,,,,,,0.0209,-0.0166375,0.00275,,,,,,,,,
1736674526247,,,,,,,,,,0.0166375,-0.0166375,0.00275,,,,,,,,,
1736674526257,,,,,,,,,,0.0081124995,-0.012375,0.0070125,,,,,,,,,
1736674526268,,,,,,,,,,-0.001375,-0.0039875,0.009075,,,,,,,,,
1736674526278,,,,,,,,,,-0.0121,0.003575,0.010175,,,,,,,,,
1736674526287,,,,,,,,,,-0.02805,0.0088,0.0144375,,,,,,,,,
1736674526297,,,,,,,,,,-0.0429,0.011,0.0133375,,,,,,,,,
1736674526307,,,,,,,,,,-0.0545875,0.014162499,0.0048125,,,,,,,,,
1736674526317,,,,,,,,,,-0.0567875,0.011,-0.0089375,,,,,,,,,
1736674526328,,,,,,,,,,-0.0408375,-0.0017875,-0.023924999,,,,,,,,,
1736674526338,,,,,,,,,,-0.0215875,-0.0177375,-0.03025,,,,,,,,,
1736674526348,,,,,,,,,,0.0017875,-0.0199375,-0.0281875,,,,,,,,,
1736674526358,,,,,,,,,,0.0240625,-0.0081124995,-0.0163625,,,,,,,,,
1736674526369,,,,,,,,,,0.0433125,-0.0028875,-0.005775,,,,,,,,,
1736674526379,,,,,,,,,,0.055,-0.0092124995,-0.0037125,,,,,,,,,
1736674526389,,,,,,,,,,0.0570625,-0.0209,0.00165,,,,,,,,,
1736674526399,,,,,,,,,,0.0411125,-0.036849998,0.009075,,,,,,,,,
1736674526408,,,,,,,,,,0.0155375,-0.0433125,0.011275,,,,,,,,,
1736674526418,,,,,,,,,,-0.0163625,-0.0262625,0.011275,,,,,,,,,
1736674526428,,,,,,,,,,-0.0429,0.0078375,5.5E-4,,,,,,,,,
1736674526438,,,,,,,,,,-0.06215,0.0290125,-0.0143,,,,,,,,,
1736674526449,,,,,,,,,,-0.066275,0.035475,-0.022824999,,,,,,,,,
1736674526459,,,,,,,,,,-0.05995,0.0312125,-0.0185625,,,,,,,,,
1736674526468,,,,,,,,,,-0.044,0.011,-0.007975,,,,,,,,,
1736674526478,,,,,,,,,,-0.0237875,-6.875E-4,5.5E-4,,,,,,,,,
1736674526488,,,,,,,,,,-0.004675,0.0067375,0.010175,,,,,,,,,
1736674526498,,,,,,,,,,0.00715,0.0215875,0.0155375,,,,,,,,,
1736674526509,,,,,,,,,,0.014575,0.0323125,0.0133375,,,,,,,,,
1736674526519,,,,,,,,,,0.0198,0.034375,0.007975,,,,,,,,,
1736674526528,,,,,,,,,,0.0188375,0.0226875,0.0059125,,,,,,,,,
1736674526538,,,,,,,,,,0.012375,0.0121,0.009075,,,,,,,,,
1736674526548,,,,,,,,,,0.00385,0.0056375,0.0144375,,,,,,,,,
1736674526559,,,,,,,,,,0.0017875,-0.0017875,0.010175,,,,,,,,,
1736674526568,,,,,,,,,,0.0017875,-0.0017875,0.00165,,,,,,,,,
1736674526579,,,,,,,,,,0.0081124995,-6.875E-4,-0.0089375,,,,,,,,,
1736674526589,,,,,,,,,,0.0177375,-0.013475,-0.0143,,,,,,,,,
1736674526599,,,,,,,,,,0.0240625,-0.0411125,-0.0165,,,,,,,,,
1736674526609,,,,,,,,,,0.0251625,-0.07205,-0.0165,,,,,,,,,
1736674526619,,,,,,,,,,0.022,-0.0774125,-0.0122375,,,,,,,,,
1736674526629,,,,,,,,,,0.0155375,-0.062425,-0.0111375,,,,,,,,,
1736674526639,,,,,,,,,,0.00495,-0.030524999,-0.006875,,,,,,,,,
1736674526650,,,,,,,,,,-0.011,0.0056375,-4.125E-4,,,,,,,,,
1736674526660,,,,,,,,,,-0.02585,0.0375375,0.00385,,,,,,,,,
1736674526669,,,,,,,,,,-0.0375375,0.050325,0.0059125,,,,,,,,,
1736674526679,,,,,,,,,,-0.0460625,0.036575,0.0048125,,,,,,,,,
1736674526689,,,,,,,,,,-0.051425,0.003575,0.009075,,,,,,,,,
1736674526699,,,,,,,,,,-0.0578875,-0.0273625,0.0133375,,,,,,,,,
1736674526709,,,,,,,,,,-0.068475,-0.0336875,0.0187,,,,,,,,,
1736674526719,,,,,,,,,,-0.078099996,-0.0209,0.0187,,,,,,,,,
1736674526729,,,,,,,,,,-0.083325,-0.00605,0.0165,,,,,,,,,
1736674526739,,,,,,,,,,-0.0875875,0.014162499,0.0133375,,,,,,,,,
1736674526749,,,,,,,,,,-0.09185,0.0290125,0.010175,,,,,,,,,
1736674526759,,,,,,,,,,-0.0897875,0.0460625,0.0133375,,,,,,,,,
1736674526769,,,,,,,,,,-0.0790625,0.05775,0.0165,,,,,,,,,
1736674526779,,,,,,,,,,-0.0631125,0.0449625,0.0155375,,,,,,,,,
1736674526790,,,,,,,,,,-0.0408375,0.019524999,0.010175,,,,,,,,,
1736674526800,,,,,,,,,,-0.014162499,-0.0166375,-0.0015125,,,,,,,,,
1736674526811,,,,,,,,,,0.0103124995,-0.0539,-0.0100375,,,,,,,,,
1736674526821,,,,,,,,,,0.0273625,-0.0774125,-0.0122375,,,,,,,,,
1736674526830,,,,,,,,,,0.0347875,-0.0741125,-0.0111375,,,,,,,,,
1736674526840,,,,,,,,,,0.0358875,-0.0561,-0.007975,,,,,,,,,
1736674526850,,,,,,,,,,0.031625,-0.0347875,-0.005775,,,,,,,,,
1736674526860,,,,,,,,,,0.0240625,-0.0209,-0.006875,,,,,,,,,
1736674526870,,,,,,,,,,0.014575,-0.013475,-0.006875,,,,,,,,,
1736674526880,,,,,,,,,,0.0028875,-0.0092124995,-0.007975,,,,,,,,,
1736674526890,,,,,,,,,,-0.0056375,-0.012375,-0.0111375,,,,,,,,,
1736674526900,,,,,,,,,,-0.013062499,-0.0103124995,-0.0174625,,,,,,,,,
1736674526911,,,,,,,,,,-0.017324999,-0.00605,-0.021724999,,,,,,,,,
1736674526921,,,,,,,,,,-0.0226875,0.0045375,-0.021724999,,,,,,,,,
1736674526930,,,,,,,,,,-0.02915,0.0163625,-0.0174625,,,,,,,,,
1736674526940,,,,,,,,,,-0.0312125,0.02475,-0.0132,,,,,,,,,
1736674526950,,,,,,,,,,-0.02805,0.0301125,-0.0100375,,,,,,,,,
1736674526960,,,,,,,,,,-0.019524999,0.02585,-0.007975,,,,,,,,,
1736674526970,,,,,,,,,,-0.0067375,0.001375,-0.0143,,,,,,,,,
1736674526980,,,,,,,,,,0.00385,-0.029424999,-0.022824999,,,,,,,,,
1736674526991,,,,,,,,,,0.00715,-0.046475,-0.023924999,,,,,,,,,
1736674527001,,,,,,,,,,-0.002475,-0.0358875,-0.0196625,,,,,,,,,
1736674527010,,,,,,,,,,-0.020624999,-0.00605,-0.0111375,,,,,,,,,
1736674527020,,,,,,,,,,-0.0429,0.033275,-0.0015125,,,,,,,,,
1736674527031,,,,,,,,,,-0.0620125,0.05995,5.5E-4,,,,,,,,,
1736674527042,,,,,,,,,,-0.068475,0.065175,-0.0015125,,,,,,,,,
1736674527051,,,,,,,,,,-0.061049998,0.052525,-0.0037125,,,,,,,,,
1736674527061,,,,,,,,,,-0.0408375,0.018424999,-0.0089375,,,,,,,,,
1736674527071,,,,,,,,,,-0.0088,-0.030524999,-0.0165,,,,,,,,,
1736674527081,,,,,,,,,,0.0209,-0.07095,-0.021724999,,,,,,,,,
1736674527091,,,,,,,,,,0.0433125,-0.0826375,-0.0154,,,,,,,,,
1736674527101,,,,,,,,,,0.0539,-0.064625,5.5E-4,,,,,,,,,
1736674527111,,,,,,,,,,0.0518375,-0.0242,0.026124999,,,,,,,,,
1736674527121,,,,,,,,,,0.039049998,0.0226875,0.0474375,,,,,,,,,
1736674527132,,,,,,,,,,0.0188375,0.0556875,0.0506,,,,,,,,,
1736674527142,,,,,,,,,,-0.002475,0.0620125,0.043175,,,,,,,,,
1736674527151,,,,,,,,,,-0.018424999,0.0449625,0.0314875,,,,,,,,,
1736674527161,,,,,,,,,,-0.0334125,0.0204875,0.0240625,,,,,,,,,
1736674527171,,,,,,,,,,-0.0451,-0.00495,0.0165,,,,,,,,,
1736674527181,,,,,,,,,,-0.0493625,-0.0188375,0.007975,,,,,,,,,
1736674527191,,,,,,,,,,-0.0460625,-0.015675,0.0070125,,,,,,,,,
1736674527201,,,,,,,,,,-0.0334125,0.003575,0.0133375,,,,,,,,,
1736674527212,,,,,,,,,,-0.014162499,0.02805,0.0229625,,,,,,,,,
1736674527222,,,,,,,,,,0.0114124995,0.049225,0.03355,,,,,,,,,
1736674527231,,,,,,,,,,0.039049998,0.0418,0.042075,,,,,,,,,
1736674527241,,,,,,,,,,0.064625,-0.0017875,0.0452375,,,,,,,,,
1736674527252,,,,,,,,,,0.077275,-0.045375,0.044275,,,,,,,,,
1736674527261,,,,,,,,,,0.0763125,-0.0581625,0.0389125,,,,,,,,,
1736674527273,,,,,,,,,,0.063525,-0.0433125,0.03355,,,,,,,,,
1736674527283,,,,,,,,,,0.039049998,-0.022,0.0292875,,,,,,,,,
1736674527293,,,,,,,,,,0.00715,2.75E-4,0.0281875,,,,,,,,,
1736674527303,,,,,,,,,,-0.02585,0.035475,0.0303875,,,,,,,,,
1736674527312,,,,,,,,,,-0.0493625,0.05775,0.0303875,,,,,,,,,
1736674527322,,,,,,,,,,-0.061049998,0.0567875,0.0281875,,,,,,,,,
1736674527333,,,,,,,,,,-0.0620125,0.02475,0.0240625,,,,,,,,,
1736674527343,,,,,,,,,,-0.050325,-0.013475,0.0218625,,,,,,,,,
1736674525585,,,,,,,,,,,,,0.089714,-0.077704,-0.655357,,,,,,
1736674525595,,,,,,,,,,,,,0.149862,0.001882,-0.588218,,,,,,
1736674525605,,,,,,,,,,,,,-0.087703,-0.132361,-0.60423,,,,,,
1736674525615,,,,,,,,,,,,,-0.083116,-0.108042,-0.670358,,,,,,
1736674525625,,,,,,,,,,,,,0.180531,-0.099661,-0.425175,,,,,,
1736674525635,,,,,,,,,,,,,6.08E-4,-0.103813,-0.526057,,,,,,
1736674525645,,,,,,,,,,,,,0.221463,-0.135795,-0.264635,,,,,,
1736674525656,,,,,,,,,,,,,0.215157,-0.054798,-0.33793,,,,,,
1736674525666,,,,,,,,,,,,,0.047652,-0.196736,-0.153659,,,,,,
1736674525676,,,,,,,,,,,,,0.083107,-0.144914,-0.20551,,,,,,
1736674525686,,,,,,,,,,,,,0.077021,-0.19924,0.019289,,,,,,
1736674525696,,,,,,,,,,,,,0.037508,-0.140355,-0.077764,,,,,,
1736674525705,,,,,,,,,,,,,0.039152,-0.181467,0.080098,,,,,,
1736674525715,,,,,,,,,,,,,0.090229,-0.123027,0.062858,,,,,,
1736674525726,,,,,,,,,,,,,-0.100308,-0.121878,-0.062608,,,,,,
1736674525736,,,,,,,,,,,,,-0.030317,-0.123863,0.031484,,,,,,
1736674525746,,,,,,,,,,,,,-0.175399,-0.014739,-0.242191,,,,,,
1736674525756,,,,,,,,,,,,,-0.160046,-0.068194,-0.167718,,,,,,
1736674525766,,,,,,,,,,,,,-0.051922,0.058005,-0.335694,,,,,,
1736674525776,,,,,,,,,,,,,-0.098657,-4.72E-4,-0.304342,,,,,,
1736674525786,,,,,,,,,,,,,-0.057922,0.018983,-0.480167,,,,,,
1736674525796,,,,,,,,,,,,,-0.070356,0.028497,-0.362637,,,,,,
1736674525805,,,,,,,,,,,,,-0.13775,-0.017081,-0.745856,,,,,,
1736674525815,,,,,,,,,,,,,-0.105752,-0.040525,-0.621961,,,,,,
1736674525826,,,,,,,,,,,,,-0.073624,0.064592,-0.597471,,,,,,
1736674525836,,,,,,,,,,,,,-0.122878,0.017213,-0.711145,,,,,,
1736674525845,,,,,,,,,,,,,-0.154584,0.035956,-0.395036,,,,,,
1736674525855,,,,,,,,,,,,,-0.061421,0.058245,-0.496629,,,,,,
1736674525865,,,,,,,,,,,,,-0.223493,-0.004467,-0.292396,,,,,,
1736674525875,,,,,,,,,,,,,-0.204937,0.01434,-0.315741,,,,,,
1736674525887,,,,,,,,,,,,,-0.160442,-0.106377,-0.373966,,,,,,
1736674525897,,,,,,,,,,,,,-0.178621,-0.053272,-0.31058,,,,,,
1736674525907,,,,,,,,,,,,,0.035277,-0.083424,-0.366496,,,,,,
1736674525917,,,,,,,,,,,,,-0.088753,-0.10206,-0.387366,,,,,,
1736674525926,,,,,,,,,,,,,0.035995,-0.133787,-0.419251,,,,,,
1736674525936,,,,,,,,,,,,,0.031815,-0.098416,-0.383199,,,,,,
1736674525946,,,,,,,,,,,,,-0.005933,-0.139261,-0.521602,,,,,,
1736674525956,,,,,,,,,,,,,0.00306,-0.105907,-0.447376,,,,,,
1736674525966,,,,,,,,,,,,,-0.077482,-0.104869,-0.466491,,,,,,
1736674525976,,,,,,,,,,,,,-0.057643,-0.084944,-0.568292,,,,,,
1736674525986,,,,,,,,,,,,,-0.039932,-0.201653,-0.15045,,,,,,
1736674525996,,,,,,,,,,,,,-0.036784,-0.117146,-0.305034,,,,,,
1736674526006,,,,,,,,,,,,,0.063825,-0.2297,-0.04835,,,,,,
1736674526016,,,,,,,,,,,,,-0.01302,-0.206897,-0.091368,,,,,,
1736674526026,,,,,,,,,,,,,0.089151,-0.145321,-0.239298,,,,,,
1736674526036,,,,,,,,,,,,,0.100887,-0.176072,-0.116315,,,,,,
1736674526046,,,,,,,,,,,,,-0.080675,0.016009,-0.481879,,,,,,
1736674526056,,,,,,,,,,,,,-0.029532,-0.074011,-0.362321,,,,,,
1736674526067,,,,,,,,,,,,,-0.037543,0.099915,-0.528872,,,,,,
1736674526077,,,,,,,,,,,,,-0.099596,0.061272,-0.528081,,,,,,
1736674526086,,,,,,,,,,,,,-0.035322,0.069857,-0.504677,,,,,,
1736674526096,,,,,,,,,,,,,-0.019408,0.057215,-0.499832,,,,,,
1736674526107,,,,,,,,,,,,,-0.040782,-0.013968,-0.444708,,,,,,
1736674526118,,,,,,,,,,,,,-0.067384,0.014983,-0.448241,,,,,,
1736674526128,,,,,,,,,,,,,-0.044393,-0.086312,-0.556836,,,,,,
1736674526138,,,,,,,,,,,,,-0.043482,-0.06826,-0.500854,,,,,,
1736674526147,,,,,,,,,,,,,-0.011918,-0.073141,-0.583768,,,,,,
1736674526157,,,,,,,,,,,,,-0.071569,-0.088712,-0.565639,,,,,,
1736674526167,,,,,,,,,,,,,-0.024888,-0.160637,-0.646535,,,,,,
1736674526177,,,,,,,,,,,,,-0.02603,-0.131469,-0.595942,,,,,,
1736674526187,,,,,,,,,,,,,0.012909,-0.13046,-0.574028,,,,,,
1736674526197,,,,,,,,,,,,,-0.015368,-0.143224,-0.616528,,,,,,
1736674526207,,,,,,,,,,,,,-0.038186,-0.126465,-0.613729,,,,,,
1736674526217,,,,,,,,,,,,,-0.017601,-0.118131,-0.553319,,,,,,
1736674526227,,,,,,,,,,,,,-0.077466,-0.104713,-0.684314,,,,,,
1736674526237,,,,,,,,,,,,,-0.082293,-0.106157,-0.662251,,,,,,
1736674526248,,,,,,,,,,,,,-0.064905,-0.075671,-0.700244,,,,,,
1736674526258,,,,,,,,,,,,,-0.077864,-0.097808,-0.708961,,,,,,
1736674526267,,,,,,,,,,,,,-0.055494,-0.074054,-0.687186,,,,,,
1736674526277,,,,,,,,,,,,,-0.050933,-0.084607,-0.691501,,,,,,
1736674526287,,,,,,,,,,,,,-0.008109,-0.063942,-0.502232,,,,,,
1736674526297,,,,,,,,,,,,,-0.043303,-0.060341,-0.569275,,,,,,
1736674526308,,,,,,,,,,,,,0.032018,-0.054539,-0.373271,,,,,,
1736674526318,,,,,,,,,,,,,0.050167,-0.025057,-0.416423,,,,,,
1736674526328,,,,,,,,,,,,,-0.176599,-0.108105,-0.480032,,,,,,
1736674526338,,,,,,,,,,,,,-0.055259,-0.057628,-0.414843,,,,,,
1736674526348,,,,,,,,,,,,,-0.209843,-0.043937,-0.553441,,,,,,
1736674526358,,,,,,,,,,,,,-0.224282,-0.085744,-0.549327,,,,,,
1736674526369,,,,,,,,,,,,,-0.165186,-0.056108,-0.612744,,,,,,
1736674526379,,,,,,,,,,,,,-0.148471,-0.074053,-0.559754,,,,,,
1736674526389,,,,,,,,,,,,,-0.16024,-0.094661,-0.791716,,,,,,
1736674526399,,,,,,,,,,,,,-0.184573,-0.100506,-0.697733,,,,,,
1736674526408,,,,,,,,,,,,,-0.005226,-0.123726,-0.889599,,,,,,
1736674526418,,,,,,,,,,,,,-0.106228,-0.134426,-0.878662,,,,,,
1736674526429,,,,,,,,,,,,,0.00189,-0.122562,-0.762073,,,,,,
1736674526439,,,,,,,,,,,,,0.043866,-0.103592,-0.841361,,,,,,
1736674526448,,,,,,,,,,,,,-0.119388,-0.127666,-0.567822,,,,,,
1736674526458,,,,,,,,,,,,,-0.083225,-0.132501,-0.644359,,,,,,
1736674526468,,,,,,,,,,,,,-0.10828,-0.060128,-0.537883,,,,,,
1736674526478,,,,,,,,,,,,,-0.131052,-0.097687,-0.559989,,,,,,
1736674526488,,,,,,,,,,,,,-0.048516,-0.045355,-0.491588,,,,,,
1736674526498,,,,,,,,,,,,,-0.059724,-0.024071,-0.520036,,,,,,
1736674526509,,,,,,,,,,,,,-0.085916,-0.092001,-0.495597,,,,,,
1736674526519,,,,,,,,,,,,,-0.066233,-0.063274,-0.496257,,,,,,
1736674526528,,,,,,,,,,,,,-0.082856,-0.068114,-0.438757,,,,,,
1736674526538,,,,,,,,,,,,,-0.115222,-0.102319,-0.467829,,,,,,
1736674526548,,,,,,,,,,,,,0.021854,-0.042054,-0.440162,,,,,,
1736674526558,,,,,,,,,,,,,5.11E-4,-0.029471,-0.460596,,,,,,
1736674526568,,,,,,,,,,,,,-0.071743,-0.085433,-0.464266,,,,,,
1736674526579,,,,,,,,,,,,,-0.024976,-0.087104,-0.452557,,,,,,
1736674526590,,,,,,,,,,,,,-0.165339,-0.087003,-0.528706,,,,,,
1736674526600,,,,,,,,,,,,,-0.129079,-0.110255,-0.476423,,,,,,
1736674526609,,,,,,,,,,,,,-0.053018,-0.003961,-0.797326,,,,,,
1736674526619,,,,,,,,,,,,,-0.138538,-0.071323,-0.636117,,,,,,
1736674526629,,,,,,,,,,,,,-0.081582,-7.25E-4,-0.961151,,,,,,
1736674526639,,,,,,,,,,,,,-0.059074,-0.011752,-0.903335,,,,,,
1736674526650,,,,,,,,,,,,,-0.089719,-0.05529,-0.894131,,,,,,
1736674526660,,,,,,,,,,,,,-0.08818,-0.055037,-0.958297,,,,,,
1736674526669,,,,,,,,,,,,,-0.083931,-0.011515,-0.684932,,,,,,
1736674526679,,,,,,,,,,,,,-0.082945,-0.046293,-0.799737,,,,,,
1736674526690,,,,,,,,,,,,,-0.098588,-0.045486,-0.665261,,,,,,
1736674526700,,,,,,,,,,,,,-0.085607,-0.020699,-0.660423,,,,,,
1736674526709,,,,,,,,,,,,,-0.014549,-0.023289,-0.614501,,,,,,
1736674526719,,,,,,,,,,,,,-0.070268,-0.057484,-0.6425,,,,,,
1736674526729,,,,,,,,,,,,,-0.07684,-0.086213,-0.525667,,,,,,
1736674526739,,,,,,,,,,,,,-0.019726,-0.021863,-0.584769,,,,,,
1736674526749,,,,,,,,,,,,,-0.175086,-0.181369,-0.364711,,,,,,
1736674526759,,,,,,,,,,,,,-0.121429,-0.118534,-0.470104,,,,,,
1736674526769,,,,,,,,,,,,,-0.069935,-0.132726,-0.152378,,,,,,
1736674526779,,,,,,,,,,,,,-0.095122,-0.133839,-0.244241,,,,,,
1736674526789,,,,,,,,,,,,,-0.023256,-0.106977,-0.16071,,,,,,
1736674526799,,,,,,,,,,,,,-0.024664,-0.115192,-0.130614,,,,,,
1736674526810,,,,,,,,,,,,,-0.098567,-0.093698,-0.415982,,,,,,
1736674526820,,,,,,,,,,,,,-0.080198,-0.102991,-0.283942,,,,,,
1736674526830,,,,,,,,,,,,,-0.018727,-0.07232,-0.638173,,,,,,
1736674526840,,,,,,,,,,,,,-0.070148,-0.072476,-0.530799,,,,,,
1736674526851,,,,,,,,,,,,,-0.001259,-0.073355,-0.699968,,,,,,
1736674526861,,,,,,,,,,,,,-0.022966,-0.07547,-0.693319,,,,,,
1736674526870,,,,,,,,,,,,,0.005908,-0.107577,-0.687163,,,,,,
1736674526880,,,,,,,,,,,,,-0.003343,-0.085289,-0.681299,,,,,,
1736674526890,,,,,,,,,,,,,-0.035915,-0.131208,-0.665761,,,,,,
1736674526900,,,,,,,,,,,,,-0.0221,-0.10996,-0.663308,,,,,,
1736674526910,,,,,,,,,,,,,-0.159873,-0.152443,-0.629418,,,,,,
1736674526920,,,,,,,,,,,,,-0.085179,-0.144881,-0.676961,,,,,,
1736674526931,,,,,,,,,,,,,-0.177058,-0.113791,-0.553647,,,,,,
1736674526941,,,,,,,,,,,,,-0.184268,-0.117388,-0.613473,,,,,,
1736674526950,,,,,,,,,,,,,-0.085564,-0.102459,-0.460176,,,,,,
1736674526960,,,,,,,,,,,,,-0.111738,-0.102044,-0.499825,,,,,,
1736674526970,,,,,,,,,,,,,-0.119109,-0.103449,-0.567907,,,,,,
1736674526980,,,,,,,,,,,,,-0.069529,-0.109042,-0.489324,,,,,,
1736674526991,,,,,,,,,,,,,-0.147265,0.011038,-0.714323,,,,,,
1736674527001,,,,,,,,,,,,,-0.166633,-0.058715,-0.650993,,,,,,
1736674527010,,,,,,,,,,,,,-0.164144,-0.007074,-0.632609,,,,,,
1736674527020,,,,,,,,,,,,,-0.12199,0.011299,-0.700585,,,,,,
1736674527031,,,,,,,,,,,,,-0.146373,-0.121788,-0.40669,,,,,,
1736674527042,,,,,,,,,,,,,-0.131651,-0.052108,-0.517907,,,,,,
1736674527051,,,,,,,,,,,,,-0.070093,-0.170127,-0.294761,,,,,,
1736674527061,,,,,,,,,,,,,-0.096479,-0.14308,-0.338073,,,,,,
1736674527071,,,,,,,,,,,,,-0.096832,-0.052568,-0.478406,,,,,,
1736674527081,,,,,,,,,,,,,-0.063941,-0.101389,-0.345913,,,,,,
1736674527092,,,,,,,,,,,,,-0.211087,0.025927,-0.747505,,,,,,
1736674527102,,,,,,,,,,,,,-0.170153,-0.034021,-0.621333,,,,,,
1736674527111,,,,,,,,,,,,,-0.073134,-0.024221,-0.759649,,,,,,
1736674527121,,,,,,,,,,,,,-0.17121,-0.010721,-0.798928,,,,,,
1736674527131,,,,,,,,,,,,,0.02498,-0.095384,-0.578613,,,,,,
1736674527141,,,,,,,,,,,,,-0.018691,-0.069231,-0.679128,,,,,,
1736674527151,,,,,,,,,,,,,0.01081,-0.102769,-0.544853,,,,,,
1736674527161,,,,,,,,,,,,,0.017675,-0.084774,-0.547476,,,,,,
1736674527172,,,,,,,,,,,,,-0.014377,-0.057749,-0.544868,,,,,,
1736674527182,,,,,,,,,,,,,-0.016029,-0.080685,-0.53259,,,,,,
1736674527191,,,,,,,,,,,,,-0.088971,-0.065826,-0.546966,,,,,,
1736674527201,,,,,,,,,,,,,-0.038872,-0.017783,-0.561948,,,,,,
1736674527212,,,,,,,,,,,,,-0.134753,-0.102747,-0.408214,,,,,,
1736674527222,,,,,,,,,,,,,-0.118181,-0.085085,-0.484303,,,,,,
1736674527232,,,,,,,,,,,,,-0.035143,-0.18493,-0.408506,,,,,,
1736674527242,,,,,,,,,,,,,-0.058812,-0.16012,-0.387476,,,,,,
1736674527252,,,,,,,,,,,,,-0.007731,-0.133729,-0.689013,,,,,,
1736674527262,,,,,,,,,,,,,-0.06377,-0.148857,-0.540981,,,,,,
1736674527272,,,,,,,,,,,,,0.017565,-0.016195,-0.830235,,,,,,
1736674527282,,,,,,,,,,,,,-0.012425,-0.076173,-0.793454,,,,,,
1736674527292,,,,,,,,,,,,,0.001053,-0.038672,-0.760896,,,,,,
1736674527302,,,,,,,,,,,,,-0.011681,-0.051242,-0.838807,,,,,,
1736674527312,,,,,,,,,,,,,-0.005337,-0.090194,-0.469596,,,,,,
1736674527322,,,,,,,,,,,,,0.002205,-0.03855,-0.592926,,,,,,
1736674527332,,,,,,,,,,,,,-0.040766,-0.155688,-0.470589,,,,,,
1736674527342,,,,,,,,,,,,,-0.024927,-0.116127,-0.428876,,,,,,
1736674525595,,,,,,,,,,,,,,,,0.084505,0.061443,0.91066,,,
1736674525605,,,,,,,,,,,,,,,,0.084008,0.061084,0.909594,,,
1736674525615,,,,,,,,,,,,,,,,0.084853,0.061647,0.915879,,,
1736674525625,,,,,,,,,,,,,,,,0.085083,0.060663,0.914683,,,
1736674525635,,,,,,,,,,,,,,,,0.086596,0.06108,0.917396,,,
1736674525645,,,,,,,,,,,,,,,,0.087918,0.060393,0.923378,,,
1736674525656,,,,,,,,,,,,,,,,0.089927,0.060428,0.925699,,,
1736674525666,,,,,,,,,,,,,,,,0.090812,0.059957,0.928265,,,
1736674525676,,,,,,,,,,,,,,,,0.091871,0.059598,0.930588,,,
1736674525686,,,,,,,,,,,,,,,,0.092564,0.058938,0.932932,,,
1736674525696,,,,,,,,,,,,,,,,0.093218,0.058584,0.935171,,,
1736674525705,,,,,,,,,,,,,,,,0.093665,0.058124,0.93746,,,
1736674525715,,,,,,,,,,,,,,,,0.094399,0.057972,0.939572,,,
1736674525726,,,,,,,,,,,,,,,,0.094471,0.058238,0.941726,,,
1736674525736,,,,,,,,,,,,,,,,0.094809,0.058552,0.943823,,,
1736674525746,,,,,,,,,,,,,,,,0.094949,0.05961,0.945844,,,
1736674525756,,,,,,,,,,,,,,,,0.095002,0.060503,0.947816,,,
1736674525766,,,,,,,,,,,,,,,,0.095731,0.061877,0.949796,,,
1736674525776,,,,,,,,,,,,,,,,0.096112,0.063044,0.951685,,,
1736674525786,,,,,,,,,,,,,,,,0.09678,0.064298,0.953523,,,
1736674525796,,,,,,,,,,,,,,,,0.097364,0.065435,0.955353,,,
1736674525806,,,,,,,,,,,,,,,,0.097917,0.066571,0.957099,,,
1736674525816,,,,,,,,,,,,,,,,0.098332,0.067432,0.958883,,,
1736674525826,,,,,,,,,,,,,,,,0.098716,0.068592,0.960626,,,
1736674525836,,,,,,,,,,,,,,,,0.098562,0.069624,0.962438,,,
1736674525845,,,,,,,,,,,,,,,,0.097902,0.070552,0.964241,,,
1736674525855,,,,,,,,,,,,,,,,0.0977,0.07151,0.966055,,,
1736674525865,,,,,,,,,,,,,,,,0.09664,0.072238,0.96787,,,
1736674525875,,,,,,,,,,,,,,,,0.095813,0.073061,0.969732,,,
1736674525887,,,,,,,,,,,,,,,,0.095186,0.073442,0.971538,,,
1736674525897,,,,,,,,,,,,,,,,0.094641,0.074028,0.973402,,,
1736674525906,,,,,,,,,,,,,,,,0.094989,0.074422,0.975099,,,
1736674525916,,,,,,,,,,,,,,,,0.094665,0.074861,0.976849,,,
1736674525926,,,,,,,,,,,,,,,,0.094782,0.075114,0.978511,,,
1736674525936,,,,,,,,,,,,,,,,0.094898,0.075482,0.980055,,,
1736674525946,,,,,,,,,,,,,,,,0.094922,0.075733,0.981544,,,
1736674525956,,,,,,,,,,,,,,,,0.094968,0.076019,0.982946,,,
1736674525966,,,,,,,,,,,,,,,,0.094574,0.076325,0.984275,,,
1736674525976,,,,,,,,,,,,,,,,0.094061,0.076768,0.985504,,,
1736674525986,,,,,,,,,,,,,,,,0.092989,0.076573,0.986801,,,
1736674525996,,,,,,,,,,,,,,,,0.091924,0.076784,0.987929,,,
1736674526006,,,,,,,,,,,,,,,,0.091157,0.076485,0.988992,,,
1736674526016,,,,,,,,,,,,,,,,0.090279,0.076356,0.989931,,,
1736674526026,,,,,,,,,,,,,,,,0.090173,0.07654,0.990681,,,
1736674526036,,,,,,,,,,,,,,,,0.09024,0.076632,0.991309,,,
1736674526046,,,,,,,,,,,,,,,,0.089884,0.077711,0.991787,,,
1736674526056,,,,,,,,,,,,,,,,0.089629,0.078396,0.992191,,,
1736674526067,,,,,,,,,,,,,,,,0.089371,0.079814,0.99243,,,
1736674526077,,,,,,,,,,,,,,,,0.088687,0.081059,0.992617,,,
1736674526086,,,,,,,,,,,,,,,,0.088198,0.082303,0.992678,,,
1736674526096,,,,,,,,,,,,,,,,0.087726,0.083466,0.99263,,,
1736674526107,,,,,,,,,,,,,,,,-0.087123,-0.084361,-0.9925,,,
1736674526118,,,,,,,,,,,,,,,,-0.086391,-0.085379,-0.992254,,,
1736674526128,,,,,,,,,,,,,,,,-0.085857,-0.086137,-0.991882,,,
1736674526138,,,,,,,,,,,,,,,,-0.085255,-0.086973,-0.991393,,,
1736674526148,,,,,,,,,,,,,,,,-0.084752,-0.087866,-0.990736,,,
1736674526158,,,,,,,,,,,,,,,,-0.083885,-0.088707,-0.989985,,,
1736674526167,,,,,,,,,,,,,,,,-0.083251,-0.089335,-0.989078,,,
1736674526177,,,,,,,,,,,,,,,,-0.082546,-0.090057,-0.988042,,,
1736674526187,,,,,,,,,,,,,,,,-0.081909,-0.090732,-0.986862,,,
1736674526197,,,,,,,,,,,,,,,,-0.081139,-0.09136,-0.985563,,,
1736674526207,,,,,,,,,,,,,,,,-0.080281,-0.091997,-0.984116,,,
1736674526217,,,,,,,,,,,,,,,,-0.079575,-0.092646,-0.982525,,,
1736674526227,,,,,,,,,,,,,,,,-0.078637,-0.093368,-0.980815,,,
1736674526237,,,,,,,,,,,,,,,,-0.077611,-0.094061,-0.978978,,,
1736674526248,,,,,,,,,,,,,,,,-0.076648,-0.094884,-0.976992,,,
1736674526258,,,,,,,,,,,,,,,,-0.075617,-0.095563,-0.974894,,,
1736674526267,,,,,,,,,,,,,,,,-0.074621,-0.096283,-0.972648,,,
1736674526277,,,,,,,,,,,,,,,,-0.073621,-0.096905,-0.97029,,,
1736674526288,,,,,,,,,,,,,,,,-0.072699,-0.097429,-0.967849,,,
1736674526298,,,,,,,,,,,,,,,,-0.071643,-0.097896,-0.965308,,,
1736674526308,,,,,,,,,,,,,,,,-0.070823,-0.098251,-0.962703,,,
1736674526318,,,,,,,,,,,,,,,,-0.070077,-0.098744,-0.959983,,,
1736674526327,,,,,,,,,,,,,,,,-0.068505,-0.098876,-0.957318,,,
1736674526337,,,,,,,,,,,,,,,,-0.067419,-0.09935,-0.954478,,,
1736674526349,,,,,,,,,,,,,,,,-0.065664,-0.099937,-0.95166,,,
1736674526359,,,,,,,,,,,,,,,,-0.063814,-0.100422,-0.94874,,,
1736674526368,,,,,,,,,,,,,,,,-0.062138,-0.101178,-0.94565,,,
1736674526378,,,,,,,,,,,,,,,,-0.060549,-0.101891,-0.9425,,,
1736674526388,,,,,,,,,,,,,,,,-0.059061,-0.102695,-0.939214,,,
1736674526398,,,,,,,,,,,,,,,,-0.057559,-0.103331,-0.935901,,,
1736674526408,,,,,,,,,,,,,,,,-0.056993,-0.104055,-0.932351,,,
1736674526418,,,,,,,,,,,,,,,,-0.055996,-0.104442,-0.928803,,,
1736674526429,,,,,,,,,,,,,,,,-0.055294,-0.104714,-0.925222,,,
1736674526439,,,,,,,,,,,,,,,,-0.054701,-0.105027,-0.921584,,,
1736674526448,,,,,,,,,,,,,,,,-0.053383,-0.104824,-0.918174,,,
1736674526458,,,,,,,,,,,,,,,,-0.052267,-0.104714,-0.91466,,,
1736674526468,,,,,,,,,,,,,,,,-0.050953,-0.104838,-0.911202,,,
1736674526478,,,,,,,,,,,,,,,,-0.049658,-0.104908,-0.907673,,,
1736674526488,,,,,,,,,,,,,,,,-0.048515,-0.105278,-0.904107,,,
1736674526498,,,,,,,,,,,,,,,,-0.04721,-0.105741,-0.900498,,,
1736674526509,,,,,,,,,,,,,,,,-0.045881,-0.105896,-0.896942,,,
1736674526519,,,,,,,,,,,,,,,,-0.044559,-0.106195,-0.893381,,,
1736674526528,,,,,,,,,,,,,,,,-0.043232,-0.106404,-0.88986,,,
1736674526538,,,,,,,,,,,,,,,,-0.041943,-0.106454,-0.88629,,,
1736674526548,,,,,,,,,,,,,,,,-0.041095,-0.10684,-0.882787,,,
1736674526558,,,,,,,,,,,,,,,,-0.040199,-0.107264,-0.879245,,,
1736674526568,,,,,,,,,,,,,,,,-0.039174,-0.107383,-0.875935,,,
1736674526579,,,,,,,,,,,,,,,,-0.038321,-0.107575,-0.872599,,,
1736674526590,,,,,,,,,,,,,,,,-0.036998,-0.107662,-0.869405,,,
1736674526600,,,,,,,,,,,,,,,,-0.035982,-0.107767,-0.866223,,,
1736674526609,,,,,,,,,,,,,,,,-0.035163,-0.10867,-0.862928,,,
1736674526619,,,,,,,,,,,,,,,,-0.03423,-0.109077,-0.859696,,,
1736674526629,,,,,,,,,,,,,,,,-0.033319,-0.110018,-0.856389,,,
1736674526639,,,,,,,,,,,,,,,,-0.032422,-0.1108,-0.853144,,,
1736674526650,,,,,,,,,,,,,,,,-0.031426,-0.111203,-0.849874,,,
1736674526660,,,,,,,,,,,,,,,,-0.030352,-0.111509,-0.846617,,,
1736674526669,,,,,,,,,,,,,,,,-0.029152,-0.111677,-0.843385,,,
1736674526679,,,,,,,,,,,,,,,,-0.028144,-0.11181,-0.840187,,,
1736674526690,,,,,,,,,,,,,,,,-0.027241,-0.111865,-0.837044,,,
1736674526700,,,,,,,,,,,,,,,,-0.026482,-0.112075,-0.833918,,,
1736674526709,,,,,,,,,,,,,,,,-0.026057,-0.112342,-0.830774,,,
1736674526719,,,,,,,,,,,,,,,,-0.025523,-0.112334,-0.827697,,,
1736674526729,,,,,,,,,,,,,,,,-0.025002,-0.11202,-0.824644,,,
1736674526739,,,,,,,,,,,,,,,,-0.024452,-0.112023,-0.821643,,,
1736674526749,,,,,,,,,,,,,,,,-0.023764,-0.110918,-0.818759,,,
1736674526759,,,,,,,,,,,,,,,,-0.023028,-0.110146,-0.815923,,,
1736674526769,,,,,,,,,,,,,,,,-0.02243,-0.109176,-0.813202,,,
1736674526779,,,,,,,,,,,,,,,,-0.021779,-0.1083,-0.810476,,,
1736674526789,,,,,,,,,,,,,,,,-0.021338,-0.107735,-0.807967,,,
1736674526799,,,,,,,,,,,,,,,,-0.021,-0.107338,-0.805428,,,
1736674526810,,,,,,,,,,,,,,,,-0.020466,-0.107282,-0.803107,,,
1736674526820,,,,,,,,,,,,,,,,-0.020075,-0.107265,-0.800791,,,
1736674526830,,,,,,,,,,,,,,,,-0.019789,-0.107765,-0.798537,,,
1736674526840,,,,,,,,,,,,,,,,-0.019279,-0.108043,-0.796294,,,
1736674526851,,,,,,,,,,,,,,,,-0.018943,-0.10851,-0.794252,,,
1736674526861,,,,,,,,,,,,,,,,-0.018531,-0.108866,-0.792164,,,
1736674526870,,,,,,,,,,,,,,,,-0.018325,-0.109108,-0.79033,,,
1736674526880,,,,,,,,,,,,,,,,-0.018063,-0.109351,-0.788539,,,
1736674526890,,,,,,,,,,,,,,,,-0.017891,-0.109342,-0.786906,,,
1736674526900,,,,,,,,,,,,,,,,-0.017732,-0.109396,-0.785216,,,
1736674526910,,,,,,,,,,,,,,,,-0.017267,-0.10895,-0.783785,,,
1736674526920,,,,,,,,,,,,,,,,-0.017009,-0.108664,-0.782293,,,
1736674526931,,,,,,,,,,,,,,,,-0.016355,-0.108129,-0.781005,,,
1736674526941,,,,,,,,,,,,,,,,-0.015671,-0.107562,-0.779697,,,
1736674526950,,,,,,,,,,,,,,,,-0.015234,-0.107108,-0.778475,,,
1736674526960,,,,,,,,,,,,,,,,-0.014721,-0.106682,-0.777295,,,
1736674526970,,,,,,,,,,,,,,,,-0.014246,-0.106359,-0.776111,,,
1736674526980,,,,,,,,,,,,,,,,-0.014041,-0.106219,-0.774955,,,
1736674526991,,,,,,,,,,,,,,,,-0.013289,-0.106551,-0.773883,,,
1736674527001,,,,,,,,,,,,,,,,-0.012689,-0.106488,-0.772827,,,
1736674527010,,,,,,,,,,,,,,,,-0.011892,-0.106426,-0.7717,,,
1736674527020,,,,,,,,,,,,,,,,-0.011092,-0.10636,-0.770644,,,
1736674527031,,,,,,,,,,,,,,,,-0.010605,-0.105439,-0.769645,,,
1736674527042,,,,,,,,,,,,,,,,-0.009953,-0.104791,-0.768607,,,
1736674527051,,,,,,,,,,,,,,,,-0.009885,-0.103824,-0.767733,,,
1736674527061,,,,,,,,,,,,,,,,-0.009737,-0.103092,-0.766899,,,
1736674527071,,,,,,,,,,,,,,,,-0.009404,-0.103014,-0.766358,,,
1736674527081,,,,,,,,,,,,,,,,-0.009397,-0.103015,-0.765734,,,
1736674527092,,,,,,,,,,,,,,,,-0.008509,-0.103529,-0.765373,,,
1736674527102,,,,,,,,,,,,,,,,-0.007854,-0.10382,-0.764791,,,
1736674527112,,,,,,,,,,,,,,,,-0.007327,-0.104348,-0.764445,,,
1736674527122,,,,,,,,,,,,,,,,-0.006327,-0.104533,-0.763985,,,
1736674527131,,,,,,,,,,,,,,,,-0.006158,-0.104531,-0.763835,,,
1736674527141,,,,,,,,,,,,,,,,-0.005832,-0.104496,-0.763578,,,
1736674527151,,,,,,,,,,,,,,,,-0.005834,-0.104334,-0.763515,,,
1736674527161,,,,,,,,,,,,,,,,-0.005961,-0.104262,-0.763451,,,
1736674527172,,,,,,,,,,,,,,,,-0.006062,-0.104263,-0.763468,,,
1736674527182,,,,,,,,,,,,,,,,-0.00631,-0.104204,-0.763513,,,
1736674527192,,,,,,,,,,,,,,,,-0.006283,-0.104031,-0.76361,,,
1736674527202,,,,,,,,,,,,,,,,-0.006162,-0.104132,-0.763662,,,
1736674527212,,,,,,,,,,,,,,,,-0.005876,-0.103626,-0.763773,,,
1736674527222,,,,,,,,,,,,,,,,-0.005427,-0.103281,-0.763766,,,
1736674527232,,,,,,,,,,,,,,,,-0.005481,-0.102849,-0.764028,,,
1736674527242,,,,,,,,,,,,,,,,-0.00549,-0.102685,-0.764104,,,
1736674527252,,,,,,,,,,,,,,,,-0.005706,-0.103096,-0.76463,,,
1736674527262,,,,,,,,,,,,,,,,-0.005868,-0.103268,-0.764979,,,
1736674527272,,,,,,,,,,,,,,,,-0.005858,-0.104219,-0.765707,,,
1736674527282,,,,,,,,,,,,,,,,-0.005958,-0.10472,-0.766325,,,
1736674527293,,,,,,,,,,,,,,,,-0.006017,-0.105172,-0.767402,,,
1736674527303,,,,,,,,,,,,,,,,-0.006064,-0.105381,-0.768312,,,
1736674527312,,,,,,,,,,,,,,,,-0.006263,-0.105026,-0.769545,,,
1736674527322,,,,,,,,,,,,,,,,-0.006385,-0.10491,-0.770593,,,
1736674527332,,,,,,,,,,,,,,,,-0.006873,-0.104322,-0.771865,,,
1736674527342,,,,,,,,,,,,,,,,-0.007418,-0.104028,-0.773087,,,
1736674525695,,,,,,,,,,,,,,,,,,,100.0,,
1736674525695,,,,,,,,,,,,,,,,,,,100.0,,
1736674525860,,,,,,,,,,,,,,,,,,,390.0,,
1736674526059,,,,,,,,,,,,,,,,,,,545.0,,
1736674526260,,,,,,,,,,,,,,,,,,,492.0,,
1736674526460,,,,,,,,,,,,,,,,,,,451.0,,
1736674526661,,,,,,,,,,,,,,,,,,,444.0,,
1736674526860,,,,,,,,,,,,,,,,,,,444.0,,
1736674527061,,,,,,,,,,,,,,,,,,,438.0,,
1736674527260,,,,,,,,,,,,,,,,,,,438.0,,
1736674525696,,,,,,,,,,,,,,,,,,,,,5.0
1736674525696,,,,,,,,,,,,,,,,,,,,,5.0
1736674527352,1.1880001,1.1740501,9.094951,,,,,,,,,,,,,,,,,,
1736674527362,1.2360001,1.2079501,9.0070505,,,,,,,,,,,,,,,,,,
1736674527373,1.2580501,1.215,8.932051,,,,,,,,,,,,,,,,,,
1736674527382,1.2360001,1.19805,8.853001,,,,,,,,,,,,,,,,,,
1736674527392,1.21905,1.15005,8.85795,,,,,,,,,,,,,,,,,,
1736674527402,1.2240001,1.1050501,8.904,,,,,,,,,,,,,,,,,,
1736674527413,1.21395,1.107,8.997001,,,,,,,,,,,,,,,,,,
1736674527423,1.2,1.1359501,9.052051,,,,,,,,,,,,,,,,,,
1736674527432,1.2049501,1.1550001,9.118951,,,,,,,,,,,,,,,,,,
1736674527442,1.179,1.146,9.177,,,,,,,,,,,,,,,,,,
1736674527452,1.1190001,1.1890501,9.19305,,,,,,,,,,,,,,,,,,
1736674527462,1.07595,1.2100501,9.174001,,,,,,,,,,,,,,,,,,
1736674527472,1.07595,1.2409501,9.19095,,,,,,,,,,,,,,,,,,
1736674527482,1.11405,1.263,9.222,,,,,,,,,,,,,,,,,,
1736674527493,1.1400001,1.2580501,9.253051,,,,,,,,,,,,,,,,,,
1736674527504,1.1190001,1.2250501,9.25605,,,,,,,,,,,,,,,,,,
1736674527513,1.0849501,1.21695,9.21195,,,,,,,,,,,,,,,,,,
1736674527523,1.08,1.23405,9.162001,,,,,,,,,,,,,,,,,,
1736674527533,1.0849501,1.2600001,9.129001,,,,,,,,,,,,,,,,,,
1736674527543,1.0639501,1.284,9.088051,,,,,,,,,,,,,,,,,,
1736674527553,1.0330501,1.2889501,9.04695,,,,,,,,,,,,,,,,,,
1736674527563,1.0489501,1.2889501,9.03495,,,,,,,,,,,,,,,,,,
1736674527573,1.06605,1.2559501,9.01605,,,,,,,,,,,,,,,,,,
1736674527583,1.116,1.22895,8.96595,,,,,,,,,,,,,,,,,,
1736674527593,1.19505,1.215,8.904,,,,,,,,,,,,,,,,,,
1736674527603,1.248,1.19805,8.85795,,,,,,,,,,,,,,,,,,
1736674527614,1.2790501,1.19295,8.85795,,,,,,,,,,,,,,,,,,
1736674527624,1.2600001,1.2030001,8.901,,,,,,,,,,,,,,,,,,
1736674527633,1.2,1.1910001,9.00405,,,,,,,,,,,,,,,,,,
1736674527643,1.143,1.1890501,9.088051,,,,,,,,,,,,,,,,,,
1736674527653,1.12605,1.1910001,9.14295,,,,,,,,,,,,,,,,,,
1736674527663,1.1689501,1.2079501,9.17205,,,,,,,,,,,,,,,,,,
1736674527674,1.23105,1.20105,9.13605,,,,,,,,,,,,,,,,,,
1736674527684,1.26195,1.179,9.094951,,,,,,,,,,,,,,,,,,
1736674527694,1.2529501,1.15995,9.05895,,,,,,,,,,,,,,,,,,
1736674527704,1.2360001,1.11,9.019051,,,,,,,,,,,,,,,,,,
1736674527714,1.21905,1.0710001,9.057,,,,,,,,,,,,,,,,,,
1736674527724,1.176,1.1220001,9.14295,,,,,,,,,,,,,,,,,,
1736674527734,1.1550001,1.19295,9.246,,,,,,,,,,,,,,,,,,
1736674527744,1.1020501,1.2409501,9.28005,,,,,,,,,,,,,,,,,,
1736674527754,1.03695,1.251,9.20505,,,,,,,,,,,,,,,,,,
1736674527764,0.975,1.28205,9.106951,,,,,,,,,,,,,,,,,,
1736674527775,0.97005004,1.296,9.033,,,,,,,,,,,,,,,,,,
1736674527785,1.0180501,1.27695,9.021001,,,,,,,,,,,,,,,,,,
1736674527794,1.131,1.27995,9.13605,,,,,,,,,,,,,,,,,,
1736674527804,1.2220501,1.284,9.253051,,,,,,,,,,,,,,,,,,
1736674527814,1.24605,1.2580501,9.351001,,,,,,,,,,,,,,,,,,
1736674527824,1.22895,1.2220501,9.40905,,,,,,,,,,,,,,,,,,
1736674527835,0.94200003,1.2390001,7.9240503,,,,,,,,,,,,,,,,,,
1736674527845,0.50595003,1.74195,5.93205,,,,,,,,,,,,,,,,,,
1736674527855,0.69495004,2.022,6.4300504,,,,,,,,,,,,,,,,,,
1736674527865,0.93405,1.7029501,7.596,,,,,,,,,,,,,,,,,,
1736674527874,1.1590501,0.99705005,9.16905,,,,,,,,,,,,,,,,,,
1736674527884,1.2790501,0.50895,10.158001,,,,,,,,,,,,,,,,,,
1736674527894,1.2910501,0.32895002,10.783051,,,,,,,,,,,,,,,,,,
1736674527904,1.164,0.30795002,11.427001,,,,,,,,,,,,,,,,,,
1736674527914,0.68805003,0.37695003,11.69505,,,,,,,,,,,,,,,,,,
1736674527924,0.50295,0.52095,11.09895,,,,,,,,,,,,,,,,,,
1736674527935,0.75195,0.74805003,10.668,,,,,,,,,,,,,,,,,,
1736674527945,1.059,0.96405005,10.453051,,,,,,,,,,,,,,,,,,
1736674527955,1.1710501,1.0669501,10.222951,,,,,,,,,,,,,,,,,,
1736674527966,1.1400001,1.062,9.889951,,,,,,,,,,,,,,,,,,
1736674527976,1.0879501,1.0519501,9.50895,,,,,,,,,,,,,,,,,,
1736674527986,1.0900501,1.0999501,9.114,,,,,,,,,,,,,,,,,,
1736674527995,1.143,1.16205,8.773951,,,,,,,,,,,,,,,,,,
1736674528005,1.19295,1.23405,8.556001,,,,,,,,,,,,,,,,,,
1736674528016,1.2240001,1.296,8.463,,,,,,,,,,,,,,,,,,
1736674528026,1.23405,1.31295,8.475,,,,,,,,,,,,,,,,,,
1736674528035,1.2529501,1.28205,8.55195,,,,,,,,,,,,,,,,,,
1736674528045,1.24995,1.1890501,8.67405,,,,,,,,,,,,,,,,,,
1736674528055,1.26195,1.062,8.841001,,,,,,,,,,,,,,,,,,
1736674528065,1.2600001,0.97095007,9.05895,,,,,,,,,,,,,,,,,,
1736674528075,1.2550501,0.897,9.189,,,,,,,,,,,,,,,,,,
1736674528085,1.2220501,0.90900004,9.295951,,,,,,,,,,,,,,,,,,
1736674528095,1.1209501,0.94695,9.415951,,,,,,,,,,,,,,,,,,
1736674528105,1.03005,1.011,9.48795,,,,,,,,,,,,,,,,,,
1736674528116,0.99705005,1.08105,9.53295,,,,,,,,,,,,,,,,,,
1736674528126,0.96795005,1.179,9.576,,,,,,,,,,,,,,,,,,
1736674528135,1.00395,1.2270001,9.588,,,,,,,,,,,,,,,,,,
1736674528145,1.0519501,1.22895,9.555,,,,,,,,,,,,,,,,,,
1736674528155,1.143,1.1839501,9.49995,,,,,,,,,,,,,,,,,,
1736674528165,1.19295,1.146,9.44505,,,,,,,,,,,,,,,,,,
1736674528176,1.167,1.1050501,9.378,,,,,,,,,,,,,,,,,,
1736674528186,1.14495,1.074,9.342,,,,,,,,,,,,,,,,,,
1736674528196,1.131,1.0900501,9.318001,,,,,,,,,,,,,,,,,,
1736674528206,1.1400001,1.11,9.32295,,,,,,,,,,,,,,,,,,
1736674528216,1.176,1.098,9.354,,,,,,,,,,,,,,,,,,
1736674528226,1.19805,1.0830001,9.37005,,,,,,,,,,,,,,,,,,
1736674528236,1.19805,1.0669501,9.403951,,,,,,,,,,,,,,,,,,
1736674528246,1.164,1.04505,9.44505,,,,,,,,,,,,,,,,,,
1736674528256,1.179,1.0020001,9.538051,,,,,,,,,,,,,,,,,,
1736674528266,1.1689501,0.99705005,9.63105,,,,,,,,,,,,,,,,,,
1736674528277,1.176,0.98295003,9.67695,,,,,,,,,,,,,,,,,,
1736674528287,1.1550001,0.99000007,9.627001,,,,,,,,,,,,,,,,,,
1736674528297,1.131,0.99495006,9.505051,,,,,,,,,,,,,,,,,,
1736674528307,1.0879501,1.0210501,9.4140005,,,,,,,,,,,,,,,,,,
1736674528317,1.06605,1.047,9.354,,,,,,,,,,,,,,,,,,
1736674528327,1.04205,1.0860001,9.33195,,,,,,,,,,,,,,,,,,
1736674528336,1.04205,1.1220001,9.391951,,,,,,,,,,,,,,,,,,
1736674528346,1.10895,1.1770501,9.493051,,,,,,,,,,,,,,,,,,
1736674528356,1.1740501,1.16505,9.576,,,,,,,,,,,,,,,,,,
1736674528366,1.167,1.1719501,9.61005,,,,,,,,,,,,,,,,,,
1736674528377,1.08,1.1689501,9.574051,,,,,,,,,,,,,,,,,,
1736674528387,0.9889501,1.1380501,9.49005,,,,,,,,,,,,,,,,,,
1736674528396,0.94905007,1.1220001,9.403951,,,,,,,,,,,,,,,,,,
1736674528406,0.93405,1.1340001,9.394051,,,,,,,,,,,,,,,,,,
1736674528416,0.94200003,1.15005,9.43995,,,,,,,,,,,,,,,,,,
1736674528427,0.89595,1.2079501,9.47295,,,,,,,,,,,,,,,,,,
1736674528437,0.82395005,1.26795,9.47295,,,,,,,,,,,,,,,,,,
1736674528447,0.75495005,1.296,9.402,,,,,,,,,,,,,,,,,,
1736674528457,0.69495004,1.332,9.306001,,,,,,,,,,,,,,,,,,
1736674528467,0.67305005,1.35405,9.241051,,,,,,,,,,,,,,,,,,
1736674528477,0.70395005,1.3630501,9.23595,,,,,,,,,,,,,,,,,,
1736674528487,0.80295,1.416,9.315001,,,,,,,,,,,,,,,,,,
1736674528497,0.90795004,1.368,9.40905,,,,,,,,,,,,,,,,,,
1736674528507,0.92205006,1.28205,9.47295,,,,,,,,,,,,,,,,,,
1736674528518,0.91995007,1.26795,9.535951,,,,,,,,,,,,,,,,,,
1736674528528,0.93900007,1.23705,9.61695,,,,,,,,,,,,,,,,,,
1736674528538,0.92505,1.2409501,9.715051,,,,,,,,,,,,,,,,,,
1736674528548,0.88395005,1.2409501,9.75405,,,,,,,,,,,,,,,,,,
1736674528557,0.85095006,1.251,9.757951,,,,,,,,,,,,,,,,,,
1736674528567,0.83400005,1.251,9.75405,,,,,,,,,,,,,,,,,,
1736674528577,0.85800004,1.2390001,9.715051,,,,,,,,,,,,,,,,,,
1736674528587,0.906,1.2559501,9.64305,,,,,,,,,,,,,,,,,,
1736674528597,0.95100003,1.2409501,9.58395,,,,,,,,,,,,,,,,,,
1736674528607,1.0210501,1.2250501,9.529051,,,,,,,,,,,,,,,,,,
1736674528617,1.11195,1.2250501,9.53295,,,,,,,,,,,,,,,,,,
1736674528627,1.179,1.251,9.59805,,,,,,,,,,,,,,,,,,
1736674528637,1.1380501,1.2390001,9.639001,,,,,,,,,,,,,,,,,,
1736674528648,1.03695,1.2199501,9.663,,,,,,,,,,,,,,,,,,
1736674528658,0.94200003,1.24395,9.688951,,,,,,,,,,,,,,,,,,
1736674528668,0.93000007,1.2940501,9.684,,,,,,,,,,,,,,,,,,
1736674528678,0.89595,1.3420501,9.672001,,,,,,,,,,,,,,,,,,
1736674528688,0.91005003,1.332,9.66705,,,,,,,,,,,,,,,,,,
1736674528698,0.94605005,1.31295,9.62895,,,,,,,,,,,,,,,,,,
1736674528708,0.94605005,1.2870001,9.60795,,,,,,,,,,,,,,,,,,
1736674528718,0.9580501,1.2529501,9.562051,,,,,,,,,,,,,,,,,,
1736674528728,0.96105003,1.2220501,9.507001,,,,,,,,,,,,,,,,,,
1736674528739,0.97305006,1.2100501,9.517051,,,,,,,,,,,,,,,,,,
1736674528749,1.02495,1.18095,9.604951,,,,,,,,,,,,,,,,,,
1736674528759,1.04205,1.167,9.658051,,,,,,,,,,,,,,,,,,
1736674528769,1.00395,1.1890501,9.744,,,,,,,,,,,,,,,,,,
1736674528779,0.98505,1.2600001,9.75405,,,,,,,,,,,,,,,,,,
1736674528789,0.95595,1.2870001,9.712951,,,,,,,,,,,,,,,,,,
1736674528798,0.906,1.3230001,9.592951,,,,,,,,,,,,,,,,,,
1736674528808,0.86295,1.3800001,9.495001,,,,,,,,,,,,,,,,,,
1736674528818,0.85095006,1.4110501,9.483001,,,,,,,,,,,,,,,,,,
1736674528828,0.86295,1.4070001,9.523951,,,,,,,,,,,,,,,,,,
1736674528838,0.89595,1.3729501,9.580951,,,,,,,,,,,,,,,,,,
1736674528848,0.882,1.31595,9.64095,,,,,,,,,,,,,,,,,,
1736674528858,0.85305005,1.2940501,9.699,,,,,,,,,,,,,,,,,,
1736674528868,0.89100003,1.2889501,9.78705,,,,,,,,,,,,,,,,,,
1736674528879,0.89805007,1.296,9.883051,,,,,,,,,,,,,,,,,,
1736674528889,0.89400005,1.2870001,9.933001,,,,,,,,,,,,,,,,,,
1736674528899,0.87705004,1.3279501,9.98805,,,,,,,,,,,,,,,,,,
1736674528909,0.82395005,1.34895,9.969001,,,,,,,,,,,,,,,,,,
1736674528920,0.77400005,1.3470001,9.93795,,,,,,,,,,,,,,,,,,
1736674528930,0.74295,1.383,9.90705,,,,,,,,,,,,,,,,,,
1736674528940,0.76005006,1.38495,9.864,,,,,,,,,,,,,,,,,,
1736674528950,0.786,1.3969501,9.79905,,,,,,,,,,,,,,,,,,
1736674528959,0.78795004,1.3990501,9.744,,,,,,,,,,,,,,,,,,
1736674528969,0.80295,1.35405,9.639001,,,,,,,,,,,,,,,,,,
1736674528979,0.83595,1.31805,9.523951,,,,,,,,,,,,,,,,,,
1736674528989,0.87195003,1.299,9.517051,,,,,,,,,,,,,,,,,,
1736674528999,0.95295006,1.27995,9.547951,,,,,,,,,,,,,,,,,,
1736674529009,0.96495,1.27995,9.61005,,,,,,,,,,,,,,,,,,
1736674529020,0.93195003,1.27995,9.694051,,,,,,,,,,,,,,,,,,
1736674529030,0.91305006,1.2409501,9.74895,,,,,,,,,,,,,,,,,,
1736674529039,0.93405,1.23405,9.72,,,,,,,,,,,,,,,,,,
1736674529049,0.642,1.23405,8.865001,,,,,,,,,,,,,,,,,,
1736674529059,0.50100005,1.3780501,8.20005,,,,,,,,,,,,,,,,,,
1736674529069,1.07295,1.4299501,8.274,,,,,,,,,,,,,,,,,,
1736674529079,1.47105,1.404,8.944051,,,,,,,,,,,,,,,,,,
1736674529089,1.4080501,1.251,9.94005,,,,,,,,,,,,,,,,,,
1736674529099,0.93000007,1.062,10.74195,,,,,,,,,,,,,,,,,,
1736674529110,0.35700002,1.0570501,11.082001,,,,,,,,,,,,,,,,,,
1736674529121,0.28800002,1.0639501,11.04195,,,,,,,,,,,,,,,,,,
1736674529131,0.39600003,1.1410501,10.837951,,,,,,,,,,,,,,,,,,
1736674529141,0.55395,1.27005,10.507951,,,,,,,,,,,,,,,,,,
1736674529151,0.62805,1.35405,10.125001,,,,,,,,,,,,,,,,,,
1736674529160,0.606,1.4140501,9.757951,,,,,,,,,,,,,,,,,,
1736674529170,0.59205,1.4449501,9.471001,,,,,,,,,,,,,,,,,,
1736674529181,0.61800003,1.488,9.27,,,,,,,,,,,,,,,,,,
1736674529190,0.67305005,1.53795,9.150001,,,,,,,,,,,,,,,,,,
1736674529200,0.76905006,1.5330001,9.1380005,,,,,,,,,,,,,,,,,,
1736674529210,0.85305005,1.5090001,9.16005,,,,,,,,,,,,,,,,,,
1736674529220,0.89100003,1.452,9.222,,,,,,,,,,,,,,,,,,
1736674529230,0.87900007,1.371,9.29895,,,,,,,,,,,,,,,,,,
1736674529241,0.85305005,1.2750001,9.35595,,,,,,,,,,,,,,,,,,
1736674529250,0.83400005,1.2049501,9.3820505,,,,,,,,,,,,,,,,,,
1736674529260,0.87900007,1.1410501,9.43995,,,,,,,,,,,,,,,,,,
1736674529271,0.97005004,1.059,9.564,,,,,,,,,,,,,,,,,,
1736674529281,1.044,0.99000007,9.694051,,,,,,,,,,,,,,,,,,
1736674529290,1.08,0.93705004,9.8209505,,,,,,,,,,,,,,,,,,
1736674529300,1.03995,0.90900004,9.945001,,,,,,,,,,,,,,,,,,
1736674529310,0.94395006,0.94200003,10.042951,,,,,,,,,,,,,,,,,,
1736674529321,0.88395005,1.011,10.036051,,,,,,,,,,,,,,,,,,
1736674529330,0.88605005,1.08105,9.97605,,,,,,,,,,,,,,,,,,
1736674529342,0.85800004,1.14795,9.94305,,,,,,,,,,,,,,,,,,
1736674529352,0.83895004,1.1890501,9.904051,,,,,,,,,,,,,,,,,,
1736674529362,0.83400005,1.179,9.84,,,,,,,,,,,,,,,,,,
1736674529372,0.88605005,1.1530501,9.769951,,,,,,,,,,,,,,,,,,
1736674529381,0.915,1.15005,9.76095,,,,,,,,,,,,,,,,,,
1736674529392,0.91305006,1.12905,9.80595,,,,,,,,,,,,,,,,,,
1736674529401,0.88605005,1.1020501,9.897,,,,,,,,,,,,,,,,,,
1736674529412,0.87705004,1.11195,9.991051,,,,,,,,,,,,,,,,,,
1736674529422,0.85305005,1.062,9.948001,,,,,,,,,,,,,,,,,,
1736674529431,0.77895004,1.0710001,9.81105,,,,,,,,,,,,,,,,,,
1736674529441,0.73995006,1.1359501,9.687,,,,,,,,,,,,,,,,,,
1736674529451,0.71595,1.19295,9.580951,,,,,,,,,,,,,,,,,,
1736674529461,0.71895003,1.26495,9.550051,,,,,,,,,,,,,,,,,,
1736674529472,0.726,1.27995,9.538051,,,,,,,,,,,,,,,,,,
1736674529481,0.71895003,1.2390001,9.519,,,,,,,,,,,,,,,,,,
1736674529492,0.76005006,1.19595,9.564,,,,,,,,,,,,,,,,,,
1736674529501,0.85095006,1.146,9.61005,,,,,,,,,,,,,,,,,,
1736674529511,0.87900007,1.11195,9.62205,,,,,,,,,,,,,,,,,,
1736674529521,0.89400005,1.0900501,9.64095,,,,,,,,,,,,,,,,,,
1736674529531,0.88605005,1.0830001,9.648001,,,,,,,,,,,,,,,,,,
1736674529542,0.83895004,1.062,9.64605,,,,,,,,,,,,,,,,,,
1736674529551,0.76905006,1.0999501,9.648001,,,,,,,,,,,,,,,,,,
1736674529561,0.693,1.15005,9.706051,,,,,,,,,,,,,,,,,,
1736674529573,0.693,1.21305,9.801001,,,,,,,,,,,,,,,,,,
1736674529583,0.70905006,1.19805,9.873,,,,,,,,,,,,,,,,,,
1736674529592,0.75195,1.146,9.885,,,,,,,,,,,,,,,,,,
1736674529602,0.82905006,1.12395,9.89505,,,,,,,,,,,,,,,,,,
1736674529612,0.88605005,1.143,9.94005,,,,,,,,,,,,,,,,,,
1736674529623,0.92700005,1.146,9.924001,,,,,,,,,,,,,,,,,,
1736674529633,0.85800004,1.095,9.835051,,,,,,,,,,,,,,,,,,
1736674529643,0.52500004,1.0639501,9.564,,,,,,,,,,,,,,,,,,
1736674529652,0.56100005,1.15995,9.13305,,,,,,,,,,,,,,,,,,
1736674529662,0.96105003,1.31295,8.899051,,,,,,,,,,,,,,,,,,
1736674529673,1.38195,1.40205,9.064051,,,,,,,,,,,,,,,,,,
1736674529682,1.389,1.2919501,9.3820505,,,,,,,,,,,,,,,,,,
1736674529692,0.94200003,1.0350001,9.71805,,,,,,,,,,,,,,,,,,
1736674529702,0.41505003,0.85095006,10.08405,,,,,,,,,,,,,,,,,,
1736674529713,0.50805,0.97095007,10.24905,,,,,,,,,,,,,,,,,,
1736674529723,0.81705004,1.12905,10.210951,,,,,,,,,,,,,,,,,,
1736674529732,1.07295,1.2079501,10.06995,,,,,,,,,,,,,,,,,,
1736674529743,1.107,1.20105,9.897,,,,,,,,,,,,,,,,,,
1736674529752,0.92700005,1.146,9.77805,,,,,,,,,,,,,,,,,,
1736674529762,0.69495004,1.098,9.663,,,,,,,,,,,,,,,,,,
1736674529772,0.606,1.11,9.591001,,,,,,,,,,,,,,,,,,
1736674529782,0.69705003,1.16205,9.552,,,,,,,,,,,,,,,,,,
1736674529793,0.89400005,1.1839501,9.5449505,,,,,,,,,,,,,,,,,,
1736674529804,1.00395,1.1890501,9.519,,,,,,,,,,,,,,,,,,
1736674529813,1.03005,1.1340001,9.44205,,,,,,,,,,,,,,,,,,
1736674529823,1.023,1.062,9.37005,,,,,,,,,,,,,,,,,,
1736674529833,1.03695,1.00905,9.403951,,,,,,,,,,,,,,,,,,
1736674529843,1.044,0.94395006,9.535951,,,,,,,,,,,,,,,,,,
1736674529853,1.07595,0.93495005,9.65505,,,,,,,,,,,,,,,,,,
1736674529864,1.02495,0.92505,9.733951,,,,,,,,,,,,,,,,,,
1736674529873,0.91005003,0.94005007,9.828,,,,,,,,,,,,,,,,,,
1736674529883,0.82905006,0.94395006,9.900001,,,,,,,,,,,,,,,,,,
1736674529894,0.79995006,0.96795005,10.012051,,,,,,,,,,,,,,,,,,
1736674529904,0.786,0.9990001,10.062,,,,,,,,,,,,,,,,,,
1736674529913,0.80295,1.00905,10.078951,,,,,,,,,,,,,,,,,,
1736674529923,0.84105,1.04295,10.05795,,,,,,,,,,,,,,,,,,
1736674529933,0.87195003,1.0830001,9.981001,,,,,,,,,,,,,,,,,,
1736674529943,0.855,1.0900501,9.916051,,,,,,,,,,,,,,,,,,
1736674529953,0.85995007,1.05495,9.79695,,,,,,,,,,,,,,,,,,
1736674529963,0.87405,1.0500001,9.66495,,,,,,,,,,,,,,,,,,
1736674529973,0.83895004,1.0879501,9.588,,,,,,,,,,,,,,,,,,
1736674529983,0.84105,1.11195,9.5449505,,,,,,,,,,,,,,,,,,
1736674529993,0.87900007,1.11405,9.556951,,,,,,,,,,,,,,,,,,
1736674530004,0.92700005,1.08105,9.604951,,,,,,,,,,,,,,,,,,
1736674530013,0.98205006,1.00695,9.62895,,,,,,,,,,,,,,,,,,
1736674530024,0.94200003,0.94005007,9.639001,,,,,,,,,,,,,,,,,,
1736674530034,0.93000007,0.90405005,9.663,,,,,,,,,,,,,,,,,,
1736674530044,0.94200003,0.906,9.688951,,,,,,,,,,,,,,,,,,
1736674530054,0.92700005,0.89895004,9.739051,,,,,,,,,,,,,,,,,,
1736674530065,0.91995007,0.873,9.77295,,,,,,,,,,,,,,,,,,
1736674530074,0.92505,0.86295,9.75105,,,,,,,,,,,,,,,,,,
1736674530084,0.90105003,0.873,9.700951,,,,,,,,,,,,,,,,,,
1736674530094,0.89595,0.90405005,9.663,,,,,,,,,,,,,,,,,,
1736674530104,0.93900007,0.95595,9.612,,,,,,,,,,,,,,,,,,
1736674530114,0.9990001,0.95205003,9.58605,,,,,,,,,,,,,,,,,,
1736674530124,1.0350001,0.93705004,9.588,,,,,,,,,,,,,,,,,,
1736674530134,0.95595,0.89205,9.672001,,,,,,,,,,,,,,,,,,
1736674530144,0.88395005,0.85800004,9.825001,,,,,,,,,,,,,,,,,,
1736674530154,0.822,0.85305005,9.948001,,,,,,,,,,,,,,,,,,
1736674530164,0.78105,0.86100006,9.99495,,,,,,,,,,,,,,,,,,
1736674530174,0.79095006,0.88695,9.94305,,,,,,,,,,,,,,,,,,
1736674530184,0.79095006,0.93000007,9.885,,,,,,,,,,,,,,,,,,
1736674530194,0.82905006,0.9990001,9.84195,,,,,,,,,,,,,,,,,,
1736674530205,0.882,1.00695,9.81795,,,,,,,,,,,,,,,,,,
1736674530214,0.82905006,0.99000007,9.8209505,,,,,,,,,,,,,,,,,,
1736674530224,0.76695,0.95895004,9.856951,,,,,,,,,,,,,,,,,,
1736674530234,0.74505,0.94395006,9.897,,,,,,,,,,,,,,,,,,
1736674530244,0.726,0.96105003,9.868951,,,,,,,,,,,,,,,,,,
1736674530255,0.71595,0.97095007,9.844951,,,,,,,,,,,,,,,,,,
1736674530265,0.726,0.95895004,10.314,,,,,,,,,,,,,,,,,,
1736674530276,0.549,0.97800004,10.563001,,,,,,,,,,,,,,,,,,
1736674530285,0.513,1.1770501,9.73005,,,,,,,,,,,,,,,,,,
1736674530295,0.73095006,1.452,8.949,,,,,,,,,,,,,,,,,,
1736674530305,1.04205,1.557,8.667001,,,,,,,,,,,,,,,,,,
1736674530315,1.11405,1.4140501,8.64,,,,,,,,,,,,,,,,,,
1736674530326,0.855,1.047,8.82495,,,,,,,,,,,,,,,,,,
1736674530335,0.762,0.82905006,9.339001,,,,,,,,,,,,,,,,,,
1736674530345,0.91800004,0.87705004,9.7560005,,,,,,,,,,,,,,,,,,
1736674530356,1.107,0.906,10.038,,,,,,,,,,,,,,,,,,
1736674527366,,,,-15.3,-7.4437504,-25.743752,,,,,,,,,,,,,,,
1736674527386,,,,-15.3,-7.55625,-25.800001,,,,,,,,,,,,,,,
1736674527406,,,,-15.4125,-8.043751,-25.85625,,,,,,,,,,,,,,,
1736674527426,,,,-15.3,-8.45625,-25.743752,,,,,,,,,,,,,,,
1736674527447,,,,-15.656251,-9.056251,-25.743752,,,,,,,,,,,,,,,
1736674527466,,,,-15.543751,-9.3,-25.556252,,,,,,,,,,,,,,,
1736674527487,,,,-15.4125,-9.7875,-25.612501,,,,,,,,,,,,,,,
1736674527507,,,,-15.356251,-9.900001,-26.156252,,,,,,,,,,,,,,,
1736674527526,,,,-15.243751,-9.84375,-26.212502,,,,,,,,,,,,,,,
1736674527546,,,,-15.4125,-9.95625,-26.75625,,,,,,,,,,,,,,,
1736674527566,,,,-15.712501,-10.14375,-27.300001,,,,,,,,,,,,,,,
1736674527586,,,,-16.2,-10.5,-27.112501,,,,,,,,,,,,,,,
1736674527606,,,,-16.5,-10.8,-27.112501,,,,,,,,,,,,,,,
1736674527626,,,,-16.5,-11.1,-27.4125,,,,,,,,,,,,,,,
1736674527647,,,,-16.2,-11.15625,-27.35625,,,,,,,,,,,,,,,
1736674527667,,,,-16.143751,-11.1,-27.6,,,,,,,,,,,,,,,
1736674527687,,,,-15.712501,-11.15625,-27.712502,,,,,,,,,,,,,,,
1736674527707,,,,-15.712501,-11.15625,-27.656252,,,,,,,,,,,,,,,
1736674527727,,,,-15.900001,-11.587501,-27.900002,,,,,,,,,,,,,,,
1736674527747,,,,-15.843751,-11.587501,-28.0125,,,,,,,,,,,,,,,
1736674527767,,,,-15.843751,-11.64375,-28.25625,,,,,,,,,,,,,,,
1736674527787,,,,-15.95625,-11.587501,-28.143751,,,,,,,,,,,,,,,
1736674527806,,,,-16.0125,-11.400001,-28.2,,,,,,,,,,,,,,,
1736674527826,,,,-16.44375,-11.700001,-28.143751,,,,,,,,,,,,,,,
1736674527846,,,,-16.612501,-11.75625,-28.25625,,,,,,,,,,,,,,,
1736674527866,,,,-16.5,-11.887501,-28.743752,,,,,,,,,,,,,,,
1736674527886,,,,-16.25625,-11.75625,-29.04375,,,,,,,,,,,,,,,
1736674527907,,,,-15.900001,-11.45625,-29.1,,,,,,,,,,,,,,,
1736674527927,,,,-15.6,-11.1,-29.1,,,,,,,,,,,,,,,
1736674527947,,,,-15.4125,-10.856251,-28.800001,,,,,,,,,,,,,,,
1736674527967,,,,-15.543751,-10.5,-28.556252,,,,,,,,,,,,,,,
1736674527986,,,,-15.656251,-10.8,-28.612501,,,,,,,,,,,,,,,
1736674528006,,,,-15.712501,-11.1,-28.85625,,,,,,,,,,,,,,,
1736674528027,,,,-16.143751,-11.400001,-29.5125,,,,,,,,,,,,,,,
1736674528046,,,,-16.612501,-11.64375,-29.812502,,,,,,,,,,,,,,,
1736674528066,,,,-16.743752,-11.34375,-30.056252,,,,,,,,,,,,,,,
1736674528086,,,,-17.04375,-11.45625,-29.343752,,,,,,,,,,,,,,,
1736674528106,,,,-16.9125,-11.2875,-28.85625,,,,,,,,,,,,,,,
1736674528126,,,,-16.85625,-11.15625,-28.556252,,,,,,,,,,,,,,,
1736674528146,,,,-17.15625,-11.1,-28.2,,,,,,,,,,,,,,,
1736674528166,,,,-17.5125,-10.856251,-28.312502,,,,,,,,,,,,,,,
1736674528187,,,,-17.5125,-10.8,-28.2,,,,,,,,,,,,,,,
1736674528206,,,,-17.5125,-10.6875,-27.900002,,,,,,,,,,,,,,,
1736674528226,,,,-17.04375,-10.5,-27.843752,,,,,,,,,,,,,,,
1736674528246,,,,-16.800001,-10.087501,-27.956251,,,,,,,,,,,,,,,
1736674528267,,,,-16.743752,-9.65625,-27.712502,,,,,,,,,,,,,,,
1736674528286,,,,-16.800001,-9.65625,-27.712502,,,,,,,,,,,,,,,
1736674528307,,,,-17.1,-9.543751,-27.712502,,,,,,,,,,,,,,,
1736674528327,,,,-16.9125,-10.087501,-27.243752,,,,,,,,,,,,,,,
1736674528346,,,,-17.15625,-10.387501,-26.7,,,,,,,,,,,,,,,
1736674528366,,,,-17.1,-10.087501,-26.400002,,,,,,,,,,,,,,,
1736674528386,,,,-16.85625,-10.44375,-26.1,,,,,,,,,,,,,,,
1736674528406,,,,-17.34375,-10.200001,-26.156252,,,,,,,,,,,,,,,
1736674528426,,,,-17.1,-10.200001,-26.343752,,,,,,,,,,,,,,,
1736674528446,,,,-17.34375,-10.743751,-26.212502,,,,,,,,,,,,,,,
1736674528467,,,,-17.8125,-10.5,-26.04375,,,,,,,,,,,,,,,
1736674528486,,,,-17.400002,-10.6875,-25.44375,,,,,,,,,,,,,,,
1736674528506,,,,-17.75625,-10.8,-24.956251,,,,,,,,,,,,,,,
1736674528526,,,,-17.7,-10.856251,-24.656252,,,,,,,,,,,,,,,
1736674528546,,,,-17.5125,-11.45625,-24.056252,,,,,,,,,,,,,,,
1736674528566,,,,-17.75625,-11.64375,-24.056252,,,,,,,,,,,,,,,
1736674528586,,,,-17.8125,-12.0,-23.643751,,,,,,,,,,,,,,,
1736674528607,,,,-17.643751,-12.0,-23.15625,,,,,,,,,,,,,,,
1736674528626,,,,-17.643751,-12.243751,-22.85625,,,,,,,,,,,,,,,
1736674528646,,,,-17.7,-12.4875,-22.612501,,,,,,,,,,,,,,,
1736674528666,,,,-17.8125,-12.900001,-22.85625,,,,,,,,,,,,,,,
1736674528686,,,,-18.112501,-13.387501,-22.556252,,,,,,,,,,,,,,,
1736674528706,,,,-18.056252,-13.387501,-22.44375,,,,,,,,,,,,,,,
1736674528726,,,,-17.94375,-13.743751,-21.956251,,,,,,,,,,,,,,,
1736674528746,,,,-17.7,-13.856251,-21.300001,,,,,,,,,,,,,,,
1736674528767,,,,-17.7,-13.856251,-21.4125,,,,,,,,,,,,,,,
1736674528786,,,,-18.056252,-14.1,-21.35625,,,,,,,,,,,,,,,
1736674528806,,,,-18.112501,-14.156251,-21.300001,,,,,,,,,,,,,,,
1736674528826,,,,-17.8125,-14.343751,-21.243752,,,,,,,,,,,,,,,
1736674528846,,,,-18.0,-14.700001,-20.456251,,,,,,,,,,,,,,,
1736674528866,,,,-17.8125,-15.056251,-20.04375,,,,,,,,,,,,,,,
1736674528887,,,,-17.94375,-15.243751,-19.800001,,,,,,,,,,,,,,,
1736674528906,,,,-18.0,-15.187501,-19.612501,,,,,,,,,,,,,,,
1736674528926,,,,-18.0,-15.6,-19.85625,,,,,,,,,,,,,,,
1736674528946,,,,-18.243752,-15.7875,-19.85625,,,,,,,,,,,,,,,
1736674528967,,,,-18.300001,-15.843751,-19.612501,,,,,,,,,,,,,,,
1736674528987,,,,-18.6,-16.25625,-19.743752,,,,,,,,,,,,,,,
1736674529006,,,,-18.4125,-16.25625,-19.5,,,,,,,,,,,,,,,
1736674529027,,,,-18.35625,-16.25625,-19.3125,,,,,,,,,,,,,,,
1736674529047,,,,-18.54375,-16.6875,-18.900002,,,,,,,,,,,,,,,
1736674529066,,,,-18.4125,-16.743752,-18.54375,,,,,,,,,,,,,,,
1736674529086,,,,-18.54375,-16.800001,-18.056252,,,,,,,,,,,,,,,
1736674529106,,,,-18.0,-16.800001,-17.94375,,,,,,,,,,,,,,,
1736674529126,,,,-18.056252,-16.556252,-18.243752,,,,,,,,,,,,,,,
1736674529147,,,,-18.056252,-16.556252,-18.35625,,,,,,,,,,,,,,,
1736674529166,,,,-18.112501,-16.5,-18.84375,,,,,,,,,,,,,,,
1736674529186,,,,-18.712502,-16.3875,-19.143751,,,,,,,,,,,,,,,
1736674529206,,,,-18.4125,-16.556252,-19.5,,,,,,,,,,,,,,,
1736674529226,,,,-18.300001,-16.556252,-19.556252,,,,,,,,,,,,,,,
1736674529246,,,,-18.4125,-16.85625,-19.556252,,,,,,,,,,,,,,,
1736674529266,,,,-18.35625,-17.15625,-19.556252,,,,,,,,,,,,,,,
1736674529286,,,,-18.35625,-17.2875,-19.3125,,,,,,,,,,,,,,,
1736674529306,,,,-18.4125,-17.34375,-19.556252,,,,,,,,,,,,,,,
1736674529327,,,,-18.243752,-17.1,-19.9125,,,,,,,,,,,,,,,
1736674529346,,,,-18.112501,-16.85625,-19.9125,,,,,,,,,,,,,,,
1736674529367,,,,-18.056252,-16.6875,-20.1,,,,,,,,,,,,,,,
1736674529386,,,,-17.75625,-16.44375,-20.1,,,,,,,,,,,,,,,
1736674529407,,,,-17.75625,-16.556252,-20.212502,,,,,,,,,,,,,,,
1736674529427,,,,-18.112501,-16.556252,-20.456251,,,,,,,,,,,,,,,
1736674529446,,,,-18.54375,-16.556252,-20.456251,,,,,,,,,,,,,,,
1736674529466,,,,-19.25625,-16.5,-21.0,,,,,,,,,,,,,,,
1736674529487,,,,-19.44375,-16.3875,-21.056252,,,,,,,,,,,,,,,
1736674529507,,,,-19.0125,-16.25625,-21.6,,,,,,,,,,,,,,,
1736674529526,,,,-19.2,-16.143751,-21.956251,,,,,,,,,,,,,,,
1736674529546,,,,-18.900002,-16.143751,-21.6,,,,,,,,,,,,,,,
1736674529566,,,,-18.956251,-15.900001,-21.54375,,,,,,,,,,,,,,,
1736674529587,,,,-19.0125,-15.95625,-21.056252,,,,,,,,,,,,,,,
1736674529606,,,,-18.84375,-15.95625,-21.54375,,,,,,,,,,,,,,,
1736674529627,,,,-18.900002,-15.6,-22.5,,,,,,,,,,,,,,,
1736674529646,,,,-18.6,-15.243751,-23.04375,,,,,,,,,,,,,,,
1736674529666,,,,-18.4125,-14.887501,-23.8125,,,,,,,,,,,,,,,
1736674529687,,,,-18.4125,-14.75625,-24.056252,,,,,,,,,,,,,,,
1736674529706,,,,-18.300001,-14.64375,-23.75625,,,,,,,,,,,,,,,
1736674529727,,,,-18.54375,-14.45625,-23.75625,,,,,,,,,,,,,,,
1736674529747,,,,-18.54375,-14.343751,-24.0,,,,,,,,,,,,,,,
1736674529767,,,,-18.35625,-13.8,-24.300001,,,,,,,,,,,,,,,
1736674529786,,,,-18.4125,-13.8,-24.6,,,,,,,,,,,,,,,
1736674529806,,,,-18.300001,-13.687501,-25.0125,,,,,,,,,,,,,,,
1736674529827,,,,-18.65625,-13.44375,-25.2,,,,,,,,,,,,,,,
1736674529846,,,,-18.956251,-13.25625,-25.2,,,,,,,,,,,,,,,
1736674529866,,,,-19.0125,-12.900001,-25.25625,,,,,,,,,,,,,,,
1736674529887,,,,-19.143751,-12.356251,-25.143751,,,,,,,,,,,,,,,
1736674529907,,,,-18.900002,-12.056251,-25.143751,,,,,,,,,,,,,,,
1736674529926,,,,-18.84375,-11.75625,-25.143751,,,,,,,,,,,,,,,
1736674529946,,,,-18.956251,-11.34375,-25.2,,,,,,,,,,,,,,,
1736674529967,,,,-18.900002,-11.15625,-25.500002,,,,,,,,,,,,,,,
1736674529987,,,,-18.84375,-10.8,-25.612501,,,,,,,,,,,,,,,
1736674530006,,,,-18.84375,-10.387501,-25.85625,,,,,,,,,,,,,,,
1736674530026,,,,-18.6,-9.95625,-25.500002,,,,,,,,,,,,,,,
1736674530047,,,,-18.4125,-9.900001,-25.556252,,,,,,,,,,,,,,,
1736674530067,,,,-18.300001,-9.65625,-25.44375,,,,,,,,,,,,,,,
1736674530086,,,,-18.056252,-9.6,-25.312502,,,,,,,,,,,,,,,
1736674530107,,,,-18.112501,-9.356251,-25.800001,,,,,,,,,,,,,,,
1736674530127,,,,-18.112501,-8.94375,-25.612501,,,,,,,,,,,,,,,
1736674530147,,,,-18.0,-8.45625,-25.556252,,,,,,,,,,,,,,,
1736674530166,,,,-18.0,-8.15625,-25.556252,,,,,,,,,,,,,,,
1736674530186,,,,-17.8125,-7.8562503,-25.2,,,,,,,,,,,,,,,
1736674530206,,,,-17.643751,-7.4437504,-24.900002,,,,,,,,,,,,,,,
1736674530227,,,,-17.7,-7.5000005,-24.54375,,,,,,,,,,,,,,,
1736674530246,,,,-17.7,-7.0875,-24.4125,,,,,,,,,,,,,,,
1736674530266,,,,-17.400002,-6.8437505,-24.243752,,,,,,,,,,,,,,,
1736674530286,,,,-17.643751,-6.95625,-24.0,,,,,,,,,,,,,,,
1736674530306,,,,-17.75625,-7.2000003,-23.75625,,,,,,,,,,,,,,,
1736674530326,,,,-17.643751,-7.55625,-23.34375,,,,,,,,,,,,,,,
1736674530346,,,,-17.75625,-7.8562503,-22.743752,,,,,,,,,,,,,,,
1736674530366,,,,-17.5125,-8.1,-22.3125,,,,,,,,,,,,,,,
1736674527372,,,,,,,1.234496,1.290384,9.642681,,,,,,,,,,,,
1736674527382,,,,,,,1.244735,1.292765,9.641046,,,,,,,,,,,,
1736674527392,,,,,,,1.251785,1.29565,9.639747,,,,,,,,,,,,
1736674527402,,,,,,,1.253508,1.288109,9.640532,,,,,,,,,,,,
1736674527412,,,,,,,1.254361,1.284716,9.640874,,,,,,,,,,,,
1736674527422,,,,,,,1.252421,1.276599,9.642205,,,,,,,,,,,,
1736674527433,,,,,,,1.254303,1.265811,9.643382,,,,,,,,,,,,
1736674527443,,,,,,,1.251721,1.256725,9.644908,,,,,,,,,,,,
1736674527453,,,,,,,1.253923,1.249714,9.645533,,,,,,,,,,,,
1736674527463,,,,,,,1.244772,1.247885,9.646953,,,,,,,,,,,,
1736674527473,,,,,,,1.239926,1.244457,9.648022,,,,,,,,,,,,
1736674527483,,,,,,,1.233877,1.248332,9.648294,,,,,,,,,,,,
1736674527493,,,,,,,1.224056,1.251554,9.649129,,,,,,,,,,,,
1736674527504,,,,,,,1.21841,1.253676,9.649568,,,,,,,,,,,,
1736674527513,,,,,,,1.216605,1.259731,9.649008,,,,,,,,,,,,
1736674527523,,,,,,,1.211728,1.265497,9.648865,,,,,,,,,,,,
1736674527533,,,,,,,1.207561,1.26957,9.648853,,,,,,,,,,,,
1736674527543,,,,,,,1.203032,1.281769,9.647805,,,,,,,,,,,,
1736674527553,,,,,,,1.20035,1.290954,9.646916,,,,,,,,,,,,
1736674527563,,,,,,,1.19551,1.303432,9.64584,,,,,,,,,,,,
1736674527574,,,,,,,1.190017,1.314474,9.64502,,,,,,,,,,,,
1736674527584,,,,,,,1.194836,1.319057,9.643798,,,,,,,,,,,,
1736674527594,,,,,,,1.194938,1.323334,9.643198,,,,,,,,,,,,
1736674527604,,,,,,,1.212589,1.321797,9.641207,,,,,,,,,,,,
1736674527613,,,,,,,1.22104,1.319723,9.640424,,,,,,,,,,,,
1736674527623,,,,,,,1.232168,1.315284,9.639615,,,,,,,,,,,,
1736674527634,,,,,,,1.243017,1.310012,9.63894,,,,,,,,,,,,
1736674527643,,,,,,,1.237793,1.302128,9.640681,,,,,,,,,,,,
1736674527654,,,,,,,1.240644,1.296452,9.641079,,,,,,,,,,,,
1736674527664,,,,,,,1.240842,1.291527,9.641715,,,,,,,,,,,,
1736674527673,,,,,,,1.239282,1.286749,9.642553,,,,,,,,,,,,
1736674527683,,,,,,,1.250229,1.282714,9.64168,,,,,,,,,,,,
1736674527693,,,,,,,1.256002,1.281162,9.641134,,,,,,,,,,,,
1736674527703,,,,,,,1.26181,1.272921,9.641468,,,,,,,,,,,,
1736674527713,,,,,,,1.265375,1.269326,9.641476,,,,,,,,,,,,
1736674527723,,,,,,,1.258917,1.261723,9.643316,,,,,,,,,,,,
1736674527734,,,,,,,1.258223,1.251251,9.644773,,,,,,,,,,,,
1736674527745,,,,,,,1.24714,1.254674,9.645767,,,,,,,,,,,,
1736674527755,,,,,,,1.245769,1.2546,9.645954,,,,,,,,,,,,
1736674527765,,,,,,,1.232317,1.2647,9.646363,,,,,,,,,,,,
1736674527774,,,,,,,1.224758,1.269888,9.646644,,,,,,,,,,,,
1736674527784,,,,,,,1.215369,1.278836,9.646648,,,,,,,,,,,,
1736674527794,,,,,,,1.198775,1.287802,9.647533,,,,,,,,,,,,
1736674527804,,,,,,,1.201813,1.290915,9.646738,,,,,,,,,,,,
1736674527815,,,,,,,1.198685,1.294484,9.64665,,,,,,,,,,,,
1736674527825,,,,,,,1.203446,1.28922,9.646761,,,,,,,,,,,,
1736674527834,,,,,,,1.210374,1.288209,9.646031,,,,,,,,,,,,
1736674527844,,,,,,,1.151275,1.402453,9.637317,,,,,,,,,,,,
1736674527854,,,,,,,1.09502,1.374693,9.647818,,,,,,,,,,,,
1736674527865,,,,,,,1.037457,1.381823,9.653118,,,,,,,,,,,,
1736674527874,,,,,,,0.982522,1.444654,9.649665,,,,,,,,,,,,
1736674527884,,,,,,,0.971653,1.291075,9.672531,,,,,,,,,,,,
1736674527894,,,,,,,0.980958,1.207174,9.68245,,,,,,,,,,,,
1736674527904,,,,,,,0.988132,1.078782,9.696886,,,,,,,,,,,,
1736674527914,,,,,,,1.027323,0.985441,9.702759,,,,,,,,,,,,
1736674527924,,,,,,,1.009477,0.937204,9.709414,,,,,,,,,,,,
1736674527935,,,,,,,0.996654,0.900381,9.714225,,,,,,,,,,,,
1736674527945,,,,,,,1.007641,0.931614,9.710143,,,,,,,,,,,,
1736674527954,,,,,,,0.986164,0.953714,9.710193,,,,,,,,,,,,
1736674527965,,,,,,,1.003877,1.01109,9.70256,,,,,,,,,,,,
1736674527976,,,,,,,1.023407,1.061714,9.695109,,,,,,,,,,,,
1736674527986,,,,,,,1.049485,1.117036,9.686104,,,,,,,,,,,,
1736674527995,,,,,,,1.07178,1.151341,9.679653,,,,,,,,,,,,
1736674528005,,,,,,,1.111816,1.199597,9.66928,,,,,,,,,,,,
1736674528015,,,,,,,1.138906,1.222886,9.663214,,,,,,,,,,,,
1736674528025,,,,,,,1.172907,1.250662,9.655593,,,,,,,,,,,,
1736674528035,,,,,,,1.19971,1.264937,9.65044,,,,,,,,,,,,
1736674528045,,,,,,,1.219982,1.257152,9.648915,,,,,,,,,,,,
1736674528056,,,,,,,1.23615,1.25521,9.647109,,,,,,,,,,,,
1736674528066,,,,,,,1.242274,1.216602,9.651265,,,,,,,,,,,,
1736674528076,,,,,,,1.249332,1.192413,9.653374,,,,,,,,,,,,
1736674528086,,,,,,,1.246897,1.155111,9.658223,,,,,,,,,,,,
1736674528095,,,,,,,1.249705,1.124939,9.661424,,,,,,,,,,,,
1736674528105,,,,,,,1.229721,1.109862,9.665731,,,,,,,,,,,,
1736674528116,,,,,,,1.219881,1.095408,9.668629,,,,,,,,,,,,
1736674528126,,,,,,,1.195995,1.104906,9.67053,,,,,,,,,,,,
1736674528135,,,,,,,1.177804,1.109062,9.672287,,,,,,,,,,,,
1736674528145,,,,,,,1.16661,1.127486,9.671514,,,,,,,,,,,,
1736674528155,,,,,,,1.152019,1.145241,9.671175,,,,,,,,,,,,
1736674528165,,,,,,,1.156055,1.156315,9.669376,,,,,,,,,,,,
1736674528176,,,,,,,1.154796,1.168819,9.668024,,,,,,,,,,,,
1736674528186,,,,,,,1.155285,1.170514,9.667761,,,,,,,,,,,,
1736674528196,,,,,,,1.157513,1.171904,9.667325,,,,,,,,,,,,
1736674528206,,,,,,,1.158928,1.171034,9.667263,,,,,,,,,,,,
1736674528217,,,,,,,1.160063,1.165548,9.667789,,,,,,,,,,,,
1736674528227,,,,,,,1.166057,1.157674,9.668015,,,,,,,,,,,,
1736674528236,,,,,,,1.168543,1.151865,9.668408,,,,,,,,,,,,
1736674528246,,,,,,,1.166545,1.142302,9.669783,,,,,,,,,,,,
1736674528256,,,,,,,1.164712,1.138363,9.670467,,,,,,,,,,,,
1736674528266,,,,,,,1.15601,1.129921,9.672502,,,,,,,,,,,,
1736674528276,,,,,,,1.150131,1.12692,9.673553,,,,,,,,,,,,
1736674528286,,,,,,,1.144664,1.125427,9.674375,,,,,,,,,,,,
1736674528297,,,,,,,1.143984,1.124952,9.674511,,,,,,,,,,,,
1736674528307,,,,,,,1.139779,1.131198,9.674278,,,,,,,,,,,,
1736674528316,,,,,,,1.138368,1.133448,9.674181,,,,,,,,,,,,
1736674528326,,,,,,,1.129727,1.143514,9.674008,,,,,,,,,,,,
1736674528336,,,,,,,1.121411,1.146529,9.674622,,,,,,,,,,,,
1736674528346,,,,,,,1.113382,1.156631,9.674345,,,,,,,,,,,,
1736674528356,,,,,,,1.099721,1.160395,9.675456,,,,,,,,,,,,
1736674528366,,,,,,,1.097034,1.164879,9.675223,,,,,,,,,,,,
1736674528376,,,,,,,1.099058,1.168672,9.674536,,,,,,,,,,,,
1736674528386,,,,,,,1.089477,1.171059,9.675332,,,,,,,,,,,,
1736674528397,,,,,,,1.088415,1.174656,9.675015,,,,,,,,,,,,
1736674528407,,,,,,,1.073344,1.176943,9.676421,,,,,,,,,,,,
1736674528417,,,,,,,1.056405,1.178707,9.67807,,,,,,,,,,,,
1736674528428,,,,,,,1.033541,1.188385,9.679354,,,,,,,,,,,,
1736674528438,,,,,,,1.01785,1.194519,9.680261,,,,,,,,,,,,
1736674528448,,,,,,,0.991075,1.21508,9.680481,,,,,,,,,,,,
1736674528457,,,,,,,0.974864,1.231296,9.680079,,,,,,,,,,,,
1736674528467,,,,,,,0.949715,1.255814,9.679429,,,,,,,,,,,,
1736674528478,,,,,,,0.927721,1.273406,9.679264,,,,,,,,,,,,
1736674528488,,,,,,,0.91469,1.293567,9.677831,,,,,,,,,,,,
1736674528497,,,,,,,0.892802,1.305544,9.678265,,,,,,,,,,,,
1736674528507,,,,,,,0.890298,1.303625,9.678754,,,,,,,,,,,,
1736674528517,,,,,,,0.887984,1.30771,9.678416,,,,,,,,,,,,
1736674528527,,,,,,,0.887682,1.296065,9.68001,,,,,,,,,,,,
1736674528537,,,,,,,0.887017,1.288634,9.681065,,,,,,,,,,,,
1736674528547,,,,,,,0.882776,1.277875,9.682877,,,,,,,,,,,,
1736674528558,,,,,,,0.883293,1.26978,9.683895,,,,,,,,,,,,
1736674528568,,,,,,,0.875554,1.264764,9.685254,,,,,,,,,,,,
1736674528578,,,,,,,0.869912,1.262063,9.686114,,,,,,,,,,,,
1736674528588,,,,,,,0.871047,1.263243,9.68586,,,,,,,,,,,,
1736674528597,,,,,,,0.867775,1.263987,9.686057,,,,,,,,,,,,
1736674528607,,,,,,,0.878909,1.266407,9.684736,,,,,,,,,,,,
1736674528617,,,,,,,0.879621,1.270047,9.684193,,,,,,,,,,,,
1736674528627,,,,,,,0.896295,1.274099,9.682132,,,,,,,,,,,,
1736674528637,,,,,,,0.904743,1.276584,9.681019,,,,,,,,,,,,
1736674528648,,,,,,,0.905141,1.27739,9.680875,,,,,,,,,,,,
1736674528658,,,,,,,0.916404,1.27996,9.679476,,,,,,,,,,,,
1736674528668,,,,,,,0.912511,1.285729,9.67908,,,,,,,,,,,,
1736674528679,,,,,,,0.914877,1.285334,9.67891,,,,,,,,,,,,
1736674528689,,,,,,,0.918286,1.290566,9.677892,,,,,,,,,,,,
1736674528698,,,,,,,0.921875,1.294062,9.677082,,,,,,,,,,,,
1736674528708,,,,,,,0.930469,1.291378,9.676619,,,,,,,,,,,,
1736674528718,,,,,,,0.937935,1.289727,9.676118,,,,,,,,,,,,
1736674528728,,,,,,,0.945841,1.281446,9.676448,,,,,,,,,,,,
1736674528738,,,,,,,0.949271,1.276442,9.676774,,,,,,,,,,,,
1736674528748,,,,,,,0.953183,1.267,9.67763,,,,,,,,,,,,
1736674528758,,,,,,,0.949423,1.264121,9.678376,,,,,,,,,,,,
1736674528768,,,,,,,0.945886,1.259388,9.679339,,,,,,,,,,,,
1736674528778,,,,,,,0.947824,1.255996,9.679589,,,,,,,,,,,,
1736674528788,,,,,,,0.944591,1.263573,9.678921,,,,,,,,,,,,
1736674528799,,,,,,,0.947566,1.268001,9.67805,,,,,,,,,,,,
1736674528809,,,,,,,0.943742,1.283989,9.676317,,,,,,,,,,,,
1736674528818,,,,,,,0.942357,1.290019,9.67565,,,,,,,,,,,,
1736674528828,,,,,,,0.934821,1.301042,9.674904,,,,,,,,,,,,
1736674528839,,,,,,,0.924582,1.309853,9.6747,,,,,,,,,,,,
1736674528849,,,,,,,0.915283,1.305828,9.676126,,,,,,,,,,,,
1736674528859,,,,,,,0.907837,1.306389,9.676752,,,,,,,,,,,,
1736674528869,,,,,,,0.898674,1.296518,9.678935,,,,,,,,,,,,
1736674528879,,,,,,,0.887219,1.288753,9.68103,,,,,,,,,,,,
1736674528889,,,,,,,0.878907,1.278991,9.683081,,,,,,,,,,,,
1736674528900,,,,,,,0.873708,1.272381,9.684423,,,,,,,,,,,,
1736674528910,,,,,,,0.864629,1.271504,9.685353,,,,,,,,,,,,
1736674528919,,,,,,,0.863043,1.270736,9.685596,,,,,,,,,,,,
1736674528929,,,,,,,0.852196,1.277377,9.685683,,,,,,,,,,,,
1736674528939,,,,,,,0.845187,1.282437,9.685628,,,,,,,,,,,,
1736674528949,,,,,,,0.841357,1.29518,9.684267,,,,,,,,,,,,
1736674528960,,,,,,,0.835559,1.306898,9.683195,,,,,,,,,,,,
1736674528970,,,,,,,0.835758,1.318535,9.681599,,,,,,,,,,,,
1736674528979,,,,,,,0.833413,1.331917,9.67997,,,,,,,,,,,,
1736674528989,,,,,,,0.838026,1.337517,9.678799,,,,,,,,,,,,
1736674528999,,,,,,,0.836702,1.343193,9.678127,,,,,,,,,,,,
1736674529009,,,,,,,0.844301,1.342842,9.677515,,,,,,,,,,,,
1736674529019,,,,,,,0.850943,1.342066,9.677043,,,,,,,,,,,,
1736674529029,,,,,,,0.853296,1.335423,9.677754,,,,,,,,,,,,
1736674529040,,,,,,,0.859124,1.33308,9.67756,,,,,,,,,,,,
1736674529050,,,,,,,0.849841,1.335966,9.677982,,,,,,,,,,,,
1736674529060,,,,,,,0.874027,1.318806,9.678178,,,,,,,,,,,,
1736674529070,,,,,,,0.921755,1.326306,9.67272,,,,,,,,,,,,
1736674529079,,,,,,,0.889793,1.320538,9.676497,,,,,,,,,,,,
1736674529089,,,,,,,0.905876,1.277921,9.680717,,,,,,,,,,,,
1736674529099,,,,,,,0.928459,1.268781,9.679778,,,,,,,,,,,,
1736674529110,,,,,,,0.846005,1.220786,9.693506,,,,,,,,,,,,
1736674529120,,,,,,,0.831872,1.188859,9.698707,,,,,,,,,,,,
1736674529130,,,,,,,0.794661,1.173501,9.703701,,,,,,,,,,,,
1736674529141,,,,,,,0.76274,1.159489,9.707941,,,,,,,,,,,,
1736674529151,,,,,,,0.768622,1.183299,9.704602,,,,,,,,,,,,
1736674529161,,,,,,,0.767524,1.198429,9.702829,,,,,,,,,,,,
1736674529171,,,,,,,0.771925,1.238938,9.697392,,,,,,,,,,,,
1736674529180,,,,,,,0.77226,1.267746,9.693644,,,,,,,,,,,,
1736674529190,,,,,,,0.777851,1.309466,9.687652,,,,,,,,,,,,
1736674529200,,,,,,,0.773528,1.337225,9.684206,,,,,,,,,,,,
1736674529210,,,,,,,0.788232,1.361345,9.67966,,,,,,,,,,,,
1736674529220,,,,,,,0.792547,1.382041,9.676373,,,,,,,,,,,,
1736674529230,,,,,,,0.804219,1.381251,9.675523,,,,,,,,,,,,
1736674529241,,,,,,,0.816605,1.386082,9.673795,,,,,,,,,,,,
1736674529251,,,,,,,0.822163,1.364723,9.676359,,,,,,,,,,,,
1736674529260,,,,,,,0.82791,1.349573,9.677994,,,,,,,,,,,,
1736674529270,,,,,,,0.839266,1.313499,9.681976,,,,,,,,,,,,
1736674529280,,,,,,,0.838863,1.288247,9.685404,,,,,,,,,,,,
1736674529290,,,,,,,0.849437,1.245124,9.690122,,,,,,,,,,,,
1736674529300,,,,,,,0.85615,1.212778,9.693633,,,,,,,,,,,,
1736674529310,,,,,,,0.854142,1.17881,9.698,,,,,,,,,,,,
1736674529320,,,,,,,0.866207,1.147957,9.70063,,,,,,,,,,,,
1736674529330,,,,,,,0.867463,1.135829,9.701947,,,,,,,,,,,,
1736674529342,,,,,,,0.868949,1.120399,9.703609,,,,,,,,,,,,
1736674529352,,,,,,,0.866792,1.123583,9.703433,,,,,,,,,,,,
1736674529361,,,,,,,0.866063,1.123813,9.703472,,,,,,,,,,,,
1736674529371,,,,,,,0.867487,1.126922,9.702983,,,,,,,,,,,,
1736674529381,,,,,,,0.859938,1.131514,9.703121,,,,,,,,,,,,
1736674529391,,,,,,,0.855898,1.131594,9.703469,,,,,,,,,,,,
1736674529401,,,,,,,0.850718,1.133542,9.703697,,,,,,,,,,,,
1736674529411,,,,,,,0.842666,1.129662,9.70485,,,,,,,,,,,,
1736674529421,,,,,,,0.842822,1.12608,9.705256,,,,,,,,,,,,
1736674529431,,,,,,,0.841725,1.121526,9.705877,,,,,,,,,,,,
1736674529441,,,,,,,0.849924,1.116201,9.705777,,,,,,,,,,,,
1736674529451,,,,,,,0.847966,1.127038,9.704696,,,,,,,,,,,,
1736674529461,,,,,,,0.84495,1.132202,9.704357,,,,,,,,,,,,
1736674529471,,,,,,,0.838798,1.151039,9.702675,,,,,,,,,,,,
1736674529481,,,,,,,0.829482,1.166282,9.701656,,,,,,,,,,,,
1736674529491,,,,,,,0.822028,1.172937,9.701488,,,,,,,,,,,,
1736674529501,,,,,,,0.811709,1.181461,9.701322,,,,,,,,,,,,
1736674529511,,,,,,,0.816171,1.17521,9.701709,,,,,,,,,,,,
1736674529521,,,,,,,0.818591,1.170553,9.702066,,,,,,,,,,,,
1736674529531,,,,,,,0.823839,1.159506,9.70295,,,,,,,,,,,,
1736674529541,,,,,,,0.829422,1.149483,9.703666,,,,,,,,,,,,
1736674529551,,,,,,,0.824128,1.140829,9.705138,,,,,,,,,,,,
1736674529562,,,,,,,0.824701,1.129177,9.706451,,,,,,,,,,,,
1736674529573,,,,,,,0.811019,1.129407,9.707578,,,,,,,,,,,,
1736674529582,,,,,,,0.799654,1.12561,9.70896,,,,,,,,,,,,
1736674529592,,,,,,,0.793922,1.12018,9.710059,,,,,,,,,,,,
1736674529602,,,,,,,0.786353,1.12067,9.710619,,,,,,,,,,,,
1736674529612,,,,,,,0.795491,1.117146,9.710281,,,,,,,,,,,,
1736674529622,,,,,,,0.800162,1.114823,9.710165,,,,,,,,,,,,
1736674529632,,,,,,,0.808048,1.113056,9.709714,,,,,,,,,,,,
1736674529642,,,,,,,0.831104,1.117399,9.707267,,,,,,,,,,,,
1736674529652,,,,,,,0.840904,1.133722,9.704521,,,,,,,,,,,,
1736674529662,,,,,,,0.838242,1.135919,9.704499,,,,,,,,,,,,
1736674529673,,,,,,,0.890413,1.170372,9.695759,,,,,,,,,,,,
1736674529683,,,,,,,0.879809,1.193568,9.693894,,,,,,,,,,,,
1736674529693,,,,,,,0.853596,1.177067,9.698249,,,,,,,,,,,,
1736674529703,,,,,,,0.875935,1.181991,9.695662,,,,,,,,,,,,
1736674529713,,,,,,,0.833818,1.148142,9.703445,,,,,,,,,,,,
1736674529722,,,,,,,0.806344,1.107372,9.710504,,,,,,,,,,,,
1736674529732,,,,,,,0.84148,1.100356,9.708318,,,,,,,,,,,,
1736674529742,,,,,,,0.847571,1.090033,9.708956,,,,,,,,,,,,
1736674529752,,,,,,,0.858758,1.09083,9.707883,,,,,,,,,,,,
1736674529762,,,,,,,0.879579,1.099355,9.705057,,,,,,,,,,,,
1736674529772,,,,,,,0.858883,1.106027,9.706154,,,,,,,,,,,,
1736674529783,,,,,,,0.847852,1.111482,9.7065,,,,,,,,,,,,
1736674529793,,,,,,,0.856,1.125276,9.704194,,,,,,,,,,,,
1736674529803,,,,,,,0.846192,1.13532,9.703886,,,,,,,,,,,,
1736674529813,,,,,,,0.867061,1.141053,9.701369,,,,,,,,,,,,
1736674529824,,,,,,,0.882624,1.147203,9.699242,,,,,,,,,,,,
1736674529834,,,,,,,0.899515,1.134422,9.699192,,,,,,,,,,,,
1736674529843,,,,,,,0.911876,1.123511,9.699307,,,,,,,,,,,,
1736674529853,,,,,,,0.92423,1.09573,9.701315,,,,,,,,,,,,
1736674529863,,,,,,,0.934625,1.069077,9.703292,,,,,,,,,,,,
1736674529873,,,,,,,0.930796,1.040302,9.706787,,,,,,,,,,,,
1736674529884,,,,,,,0.937904,1.013276,9.708961,,,,,,,,,,,,
1736674529894,,,,,,,0.92267,0.991827,9.712635,,,,,,,,,,,,
1736674529903,,,,,,,0.911049,0.974323,9.715505,,,,,,,,,,,,
1736674529913,,,,,,,0.896565,0.966596,9.717625,,,,,,,,,,,,
1736674529923,,,,,,,0.882615,0.963407,9.719218,,,,,,,,,,,,
1736674529933,,,,,,,0.879271,0.972387,9.718628,,,,,,,,,,,,
1736674529943,,,,,,,0.875236,0.98044,9.718183,,,,,,,,,,,,
1736674529953,,,,,,,0.877289,0.993181,9.716702,,,,,,,,,,,,
1736674529963,,,,,,,0.879307,1.007286,9.71507,,,,,,,,,,,,
1736674529973,,,,,,,0.881966,1.022069,9.713284,,,,,,,,,,,,
1736674529984,,,,,,,0.884846,1.029199,9.712269,,,,,,,,,,,,
1736674529994,,,,,,,0.886084,1.039177,9.711094,,,,,,,,,,,,
1736674530003,,,,,,,0.88224,1.045176,9.710801,,,,,,,,,,,,
1736674530014,,,,,,,0.889022,1.038568,9.71089,,,,,,,,,,,,
1736674530024,,,,,,,0.889882,1.038023,9.71087,,,,,,,,,,,,
1736674530035,,,,,,,0.891242,1.021733,9.712473,,,,,,,,,,,,
1736674530044,,,,,,,0.894918,1.010588,9.713301,,,,,,,,,,,,
1736674530054,,,,,,,0.896259,0.9976,9.714519,,,,,,,,,,,,
1736674530065,,,,,,,0.898778,0.988582,9.715208,,,,,,,,,,,,
1736674530075,,,,,,,0.899798,0.978081,9.716178,,,,,,,,,,,,
1736674530084,,,,,,,0.901571,0.969967,9.716826,,,,,,,,,,,,
1736674530094,,,,,,,0.903016,0.965242,9.717163,,,,,,,,,,,,
1736674530104,,,,,,,0.904705,0.955977,9.717921,,,,,,,,,,,,
1736674530114,,,,,,,0.915095,0.952739,9.717267,,,,,,,,,,,,
1736674530124,,,,,,,0.916454,0.948238,9.717579,,,,,,,,,,,,
1736674530134,,,,,,,0.914805,0.937222,9.718802,,,,,,,,,,,,
1736674530144,,,,,,,0.918625,0.931701,9.718973,,,,,,,,,,,,
1736674530154,,,,,,,0.901926,0.917825,9.721858,,,,,,,,,,,,
1736674530164,,,,,,,0.895708,0.907526,9.723399,,,,,,,,,,,,
1736674530174,,,,,,,0.885916,0.900752,9.724926,,,,,,,,,,,,
1736674530184,,,,,,,0.87905,0.892414,9.726317,,,,,,,,,,,,
1736674530194,,,,,,,0.877939,0.897986,9.725904,,,,,,,,,,,,
1736674530204,,,,,,,0.871518,0.89766,9.726511,,,,,,,,,,,,
1736674530214,,,,,,,0.86623,0.903722,9.726424,,,,,,,,,,,,
1736674530224,,,,,,,0.86381,0.911525,9.72591,,,,,,,,,,,,
1736674530234,,,,,,,0.849652,0.913324,9.72699,,,,,,,,,,,,
1736674530245,,,,,,,0.840526,0.917193,9.727419,,,,,,,,,,,,
1736674530255,,,,,,,0.830849,0.922664,9.727732,,,,,,,,,,,,
1736674530265,,,,,,,0.826892,0.927825,9.727576,,,,,,,,,,,,
1736674530275,,,,,,,0.827583,0.940464,9.726295,,,,,,,,,,,,
1736674530285,,,,,,,0.861605,0.969911,9.720423,,,,,,,,,,,,
1736674530295,,,,,,,0.885445,1.062476,9.708602,,,,,,,,,,,,
1736674530305,,,,,,,0.851646,1.111189,9.706183,,,,,,,,,,,,
1736674530315,,,,,,,0.86182,1.178482,9.697347,,,,,,,,,,,,
1736674530326,,,,,,,0.855309,1.235177,9.690866,,,,,,,,,,,,
1736674530336,,,,,,,0.820221,1.193867,9.699077,,,,,,,,,,,,
1736674530345,,,,,,,0.813133,1.164833,9.703203,,,,,,,,,,,,
1736674530356,,,,,,,0.830287,1.105665,9.70867,,,,,,,,,,,,
1736674527353,,,,,,,,,,-0.034375,-0.045375,0.0187,,,,,,,,,
1736674527363,,,,,,,,,,-0.015262499,-0.0507375,0.0207625,,,,,,,,,
1736674527373,,,,,,,,,,0.00385,-0.0347875,0.0229625,,,,,,,,,
1736674527383,,,,,,,,,,0.0166375,-0.00495,0.027224999,,,,,,,,,
1736674527393,,,,,,,,,,0.0188375,0.0290125,0.0292875,,,,,,,,,
1736674527403,,,,,,,,,,0.013475,0.052525,0.032449998,,,,,,,,,
1736674527413,,,,,,,,,,6.875E-4,0.05995,0.0281875,,,,,,,,,
1736674527423,,,,,,,,,,-0.0163625,0.0449625,0.0198,,,,,,,,,
1736674527432,,,,,,,,,,-0.0323125,0.02585,0.0059125,,,,,,,,,
1736674527442,,,,,,,,,,-0.0418,0.013062499,-0.0089375,,,,,,,,,
1736674527452,,,,,,,,,,-0.0451,-0.00495,-0.021724999,,,,,,,,,
1736674527462,,,,,,,,,,-0.044,-0.015675,-0.023924999,,,,,,,,,
1736674527472,,,,,,,,,,-0.0386375,-0.013475,-0.0174625,,,,,,,,,
1736674527482,,,,,,,,,,-0.02915,-0.0039875,-0.006875,,,,,,,,,
1736674527493,,,,,,,,,,-0.0163625,0.0099,-5.5E-4,,,,,,,,,
1736674527504,,,,,,,,,,-0.001375,0.0078375,-0.0026125,,,,,,,,,
1736674527513,,,,,,,,,,0.0103124995,-0.00825,-0.006875,,,,,,,,,
1736674527523,,,,,,,,,,0.022,-0.0199375,-0.0111375,,,,,,,,,
1736674527533,,,,,,,,,,0.031625,-0.0231,-0.006875,,,,,,,,,
1736674527543,,,,,,,,,,0.0422125,-0.0231,-0.005775,,,,,,,,,
1736674527553,,,,,,,,,,0.0496375,-0.022,-0.0037125,,,,,,,,,
1736674527563,,,,,,,,,,0.0539,-0.0199375,0.0048125,,,,,,,,,
1736674527573,,,,,,,,,,0.0528,-0.0242,0.0165,,,,,,,,,
1736674527583,,,,,,,,,,0.0433125,-0.0369875,0.023924999,,,,,,,,,
1736674527593,,,,,,,,,,0.0251625,-0.045375,0.023924999,,,,,,,,,
1736674527603,,,,,,,,,,0.00495,-0.0369875,0.0196625,,,,,,,,,
1736674527613,,,,,,,,,,-0.014162499,-0.014575,0.009075,,,,,,,,,
1736674527623,,,,,,,,,,-0.0301125,0.0099,-0.0037125,,,,,,,,,
1736674527633,,,,,,,,,,-0.0397375,0.02585,-0.0111375,,,,,,,,,
1736674527643,,,,,,,,,,-0.0408375,0.02695,-0.0089375,,,,,,,,,
1736674527653,,,,,,,,,,-0.035475,0.0119624995,-0.0026125,,,,,,,,,
1736674527663,,,,,,,,,,-0.02805,-0.0114124995,0.00165,,,,,,,,,
1736674527674,,,,,,,,,,-0.019524999,-0.029424999,0.00165,,,,,,,,,
1736674527684,,,,,,,,,,-0.0088,-0.0262625,-5.5E-4,,,,,,,,,
1736674527693,,,,,,,,,,-0.002475,-0.0166375,-0.0026125,,,,,,,,,
1736674527703,,,,,,,,,,-0.003575,-0.0028875,-0.0111375,,,,,,,,,
1736674527714,,,,,,,,,,-0.0056375,0.0237875,-0.0196625,,,,,,,,,
1736674527724,,,,,,,,,,-0.0078375,0.0429,-0.0292875,,,,,,,,,
1736674527734,,,,,,,,,,-0.0078375,0.0386375,-0.038775,,,,,,,,,
1736674527744,,,,,,,,,,-0.0056375,0.011,-0.039875,,,,,,,,,
1736674527754,,,,,,,,,,0.0017875,-0.0273625,-0.037675,,,,,,,,,
1736674527764,,,,,,,,,,0.00715,-0.0518375,-0.03135,,,,,,,,,
1736674527774,,,,,,,,,,0.0092124995,-0.0507375,-0.0143,,,,,,,,,
1736674527785,,,,,,,,,,0.00715,-0.022,0.00275,,,,,,,,,
1736674527794,,,,,,,,,,-4.125E-4,0.016224999,0.0144375,,,,,,,,,
1736674527804,,,,,,,,,,-0.0099,0.035475,0.0144375,,,,,,,,,
1736674527814,,,,,,,,,,-0.015262499,0.02585,0.0059125,,,,,,,,,
1736674527824,,,,,,,,,,-0.018424999,0.0045375,-0.0037125,,,,,,,,,
1736674527835,,,,,,,,,,-0.018424999,-0.0017875,-0.0100375,,,,,,,,,
1736674527845,,,,,,,,,,-0.12705,0.26427498,0.0176,,,,,,,,,
1736674527855,,,,,,,,,,-0.3675375,0.590975,0.0952875,,,,,,,,,
1736674527865,,,,,,,,,,-0.5856125,0.6857125,0.1282875,,,,,,,,,
1736674527874,,,,,,,,,,-0.721875,0.572825,0.1123375,,,,,,,,,
1736674527884,,,,,,,,,,-0.7420875,0.3388,0.0495,,,,,,,,,
1736674527894,,,,,,,,,,-0.6601375,0.12375,-0.0345125,,,,,,,,,
1736674527904,,,,,,,,,,-0.5058625,-0.06985,-0.09845,,,,,,,,,
1736674527914,,,,,,,,,,-0.28875,-0.2572625,-0.120725,,,,,,,,,
1736674527924,,,,,,,,,,-0.044,-0.33495,-0.0782375,,,,,,,,,
1736674527935,,,,,,,,,,0.1656875,-0.2476375,-0.0015125,,,,,,,,,
1736674527945,,,,,,,,,,0.33055,-0.1189375,0.0517,,,,,,,,,
1736674527955,,,,,,,,,,0.4508625,-0.0529375,0.06765,,,,,,,,,
1736674527966,,,,,,,,,,0.521125,-0.0603625,0.0633875,,,,,,,,,
1736674527976,,,,,,,,,,0.52745,-0.1007875,0.056925,,,,,,,,,
1736674527986,,,,,,,,,,0.4829,-0.1456125,0.0504625,,,,,,,,,
1736674527995,,,,,,,,,,0.3977875,-0.17435,0.0345125,,,,,,,,,
1736674528005,,,,,,,,,,0.2913625,-0.17325,0.015262499,,,,,,,,,
1736674528015,,,,,,,,,,0.17215,-0.1519375,0.003575,,,,,,,,,
1736674528025,,,,,,,,,,0.0529375,-0.1232,-0.0017875,,,,,,,,,
1736674528035,,,,,,,,,,-0.048125,-0.087037496,-0.00605,,,,,,,,,
1736674528045,,,,,,,,,,-0.128975,-0.04455,-0.00495,,,,,,,,,
1736674528055,,,,,,,,,,-0.1821875,-0.001925,-6.875E-4,,,,,,,,,
1736674528065,,,,,,,,,,-0.2057,0.032175,-0.0017875,,,,,,,,,
1736674528075,,,,,,,,,,-0.2003375,0.044825,-0.011275,,,,,,,,,
1736674528085,,,,,,,,,,-0.1716,0.0427625,-0.0251625,,,,,,,,,
1736674528096,,,,,,,,,,-0.130075,0.0331375,-0.034649998,,,,,,,,,
1736674528106,,,,,,,,,,-0.080025,0.028875,-0.034649998,,,,,,,,,
1736674528116,,,,,,,,,,-0.033275,0.032175,-0.0251625,,,,,,,,,
1736674528126,,,,,,,,,,0.01045,0.0331375,-0.011275,,,,,,,,,
1736674528135,,,,,,,,,,0.048675,0.0279125,0.0078375,,,,,,,,,
1736674528145,,,,,,,,,,0.07425,0.0193875,0.03025,,,,,,,,,
1736674528155,,,,,,,,,,0.0902,0.02035,0.0419375,,,,,,,,,
1736674528165,,,,,,,,,,0.0955625,0.02365,0.0397375,,,,,,,,,
1736674528176,,,,,,,,,,0.0902,0.02255,0.03025,,,,,,,,,
1736674528186,,,,,,,,,,0.0699875,0.0246125,0.018424999,,,,,,,,,
1736674528196,,,,,,,,,,0.0433125,0.02035,0.011,,,,,,,,,
1736674528206,,,,,,,,,,0.01045,0.0086624995,0.0078375,,,,,,,,,
1736674528216,,,,,,,,,,-0.0215875,0.0023375,0.0067375,,,,,,,,,
1736674528226,,,,,,,,,,-0.0386375,0.0055,0.004675,,,,,,,,,
1736674528236,,,,,,,,,,-0.0396,0.0182875,4.125E-4,,,,,,,,,
1736674528246,,,,,,,,,,-0.0268125,0.0427625,0.003575,,,,,,,,,
1736674528256,,,,,,,,,,8.25E-4,0.077825,0.011,,,,,,,,,
1736674528266,,,,,,,,,,0.033825,0.1013375,0.0121,,,,,,,,,
1736674528277,,,,,,,,,,0.0699875,0.098037496,0.0121,,,,,,,,,
1736674528287,,,,,,,,,,0.1007875,0.0683375,0.0089375,,,,,,,,,
1736674528296,,,,,,,,,,0.120037496,0.0363,4.125E-4,,,,,,,,,
1736674528306,,,,,,,,,,0.129525,0.02145,-0.00275,,,,,,,,,
1736674528316,,,,,,,,,,0.1263625,0.0257125,-0.00275,,,,,,,,,
1736674528326,,,,,,,,,,0.1093125,0.0385,-0.00495,,,,,,,,,
1736674528337,,,,,,,,,,0.082775,0.062975,-0.00275,,,,,,,,,
1736674528346,,,,,,,,,,0.0583,0.0906125,4.125E-4,,,,,,,,,
1736674528356,,,,,,,,,,0.039049998,0.1065625,-6.875E-4,,,,,,,,,
1736674528366,,,,,,,,,,0.0284625,0.0917125,-0.012375,,,,,,,,,
1736674528377,,,,,,,,,,0.0264,0.05335,-0.028324999,,,,,,,,,
1736674528387,,,,,,,,,,0.0264,0.0160875,-0.03575,,,,,,,,,
1736674528397,,,,,,,,,,0.0231,0.0086624995,-0.03795,,,,,,,,,
1736674528407,,,,,,,,,,0.0242,0.0416625,-0.034649998,,,,,,,,,
1736674528416,,,,,,,,,,0.032725,0.08635,-0.03575,,,,,,,,,
1736674528427,,,,,,,,,,0.0455125,0.1076625,-0.0411125,,,,,,,,,
1736674528437,,,,,,,,,,0.065725,0.098037496,-0.0400125,,,,,,,,,
1736674528447,,,,,,,,,,0.083875,0.060775,-0.0325875,,,,,,,,,
1736674528457,,,,,,,,,,0.0944625,0.0353375,-0.011275,,,,,,,,,
1736674528467,,,,,,,,,,0.0891,0.0246125,0.0174625,,,,,,,,,
1736674528477,,,,,,,,,,0.0699875,0.0331375,0.0430375,,,,,,,,,
1736674528487,,,,,,,,,,0.041249998,0.0598125,0.0653125,,,,,,,,,
1736674528498,,,,,,,,,,0.0114124995,0.081125,0.078099996,,,,,,,,,
1736674528507,,,,,,,,,,-0.016224999,0.080025,0.077,,,,,,,,,
1736674528518,,,,,,,,,,-0.0418,0.0704,0.0653125,,,,,,,,,
1736674528528,,,,,,,,,,-0.0598125,0.061875,0.0567875,,,,,,,,,
1736674528538,,,,,,,,,,-0.064075,0.054449998,0.0493625,,,,,,,,,
1736674528548,,,,,,,,,,-0.058849998,0.0416625,0.0397375,,,,,,,,,
1736674528557,,,,,,,,,,-0.0449625,0.0342375,0.035475,,,,,,,,,
1736674528567,,,,,,,,,,-0.02475,0.0374,0.0419375,,,,,,,,,
1736674528577,,,,,,,,,,-0.0034375,0.0385,0.054725,,,,,,,,,
1736674528587,,,,,,,,,,0.0188375,0.0320375,0.0664125,,,,,,,,,
1736674528597,,,,,,,,,,0.0380875,0.029975,0.0727375,,,,,,,,,
1736674528607,,,,,,,,,,0.049775,0.0438625,0.0749375,,,,,,,,,
1736674528617,,,,,,,,,,0.0551375,0.0746625,0.0727375,,,,,,,,,
1736674528627,,,,,,,,,,0.0572,0.1065625,0.061049998,,,,,,,,,
1736674528637,,,,,,,,,,0.0583,0.1225125,0.044,,,,,,,,,
1736674528648,,,,,,,,,,0.0594,0.11825,0.02805,,,,,,,,,
1736674528658,,,,,,,,,,0.0594,0.094875,0.020624999,,,,,,,,,
1736674528668,,,,,,,,,,0.049775,0.054449998,0.021724999,,,,,,,,,
1736674528678,,,,,,,,,,0.0358875,0.0044,0.0259875,,,,,,,,,
1736674528688,,,,,,,,,,0.014575,-0.033825,0.0334125,,,,,,,,,
1736674528698,,,,,,,,,,-0.0066,-0.051975,0.0323125,,,,,,,,,
1736674528708,,,,,,,,,,-0.0268125,-0.0573375,0.02805,,,,,,,,,
1736674528718,,,,,,,,,,-0.0396,-0.0562375,0.021724999,,,,,,,,,
1736674528728,,,,,,,,,,-0.0438625,-0.043449998,0.018424999,,,,,,,,,
1736674528739,,,,,,,,,,-0.0385,-0.01155,0.018424999,,,,,,,,,
1736674528749,,,,,,,,,,-0.0204875,0.0363,0.0163625,,,,,,,,,
1736674528759,,,,,,,,,,0.0028875,0.0726,0.011,,,,,,,,,
1736674528769,,,,,,,,,,0.0242,0.080025,0.003575,,,,,,,,,
1736674528778,,,,,,,,,,0.0433125,0.0672375,-0.00275,,,,,,,,,
1736674528788,,,,,,,,,,0.0540375,0.0363,-0.0103124995,,,,,,,,,
1736674528798,,,,,,,,,,0.0551375,-0.004125,-0.0177375,,,,,,,,,
1736674528808,,,,,,,,,,0.04235,-0.0232375,-0.013475,,,,,,,,,
1736674528818,,,,,,,,,,0.017875,-0.01265,-0.0017875,,,,,,,,,
1736674528828,,,,,,,,,,-0.0066,0.02035,0.011,,,,,,,,,
1736674528838,,,,,,,,,,-0.0290125,0.048125,0.015262499,,,,,,,,,
1736674528848,,,,,,,,,,-0.050325,0.062975,0.011,,,,,,,,,
1736674528858,,,,,,,,,,-0.064075,0.0683375,0.0067375,,,,,,,,,
1736674528868,,,,,,,,,,-0.0748,0.0726,0.003575,,,,,,,,,
1736674528879,,,,,,,,,,-0.0768625,0.0768625,-0.00275,,,,,,,,,
1736674528889,,,,,,,,,,-0.0726,0.0704,-0.0144375,,,,,,,,,
1736674528899,,,,,,,,,,-0.0631125,0.0523875,-0.0229625,,,,,,,,,
1736674528909,,,,,,,,,,-0.0460625,0.0257125,-0.030524999,,,,,,,,,
1736674528920,,,,,,,,,,-0.02475,1.375E-4,-0.029424999,,,,,,,,,
1736674528930,,,,,,,,,,-0.0056375,-0.01155,-0.0240625,,,,,,,,,
1736674528940,,,,,,,,,,0.0188375,-0.0158125,-0.0177375,,,,,,,,,
1736674528950,,,,,,,,,,0.0444125,-0.0221375,-0.0092124995,,,,,,,,,
1736674528959,,,,,,,,,,0.0636625,-0.0243375,-6.875E-4,,,,,,,,,
1736674528969,,,,,,,,,,0.07425,-0.0264,0.0100375,,,,,,,,,
1736674528979,,,,,,,,,,0.0763125,-0.020075,0.015262499,,,,,,,,,
1736674528989,,,,,,,,,,0.0688875,0.0023375,0.0174625,,,,,,,,,
1736674528999,,,,,,,,,,0.0583,0.0268125,0.0174625,,,,,,,,,
1736674529009,,,,,,,,,,0.0455125,0.0427625,0.0100375,,,,,,,,,
1736674529019,,,,,,,,,,0.032725,0.0396,0.0015125,,,,,,,,,
1736674529029,,,,,,,,,,0.0264,0.0246125,-0.0070125,,,,,,,,,
1736674529039,,,,,,,,,,0.0253,0.0066,-0.013475,,,,,,,,,
1736674529049,,,,,,,,,,0.013612499,-0.0455125,-0.022,,,,,,,,,
1736674529059,,,,,,,,,,-0.0842875,-0.1786125,-0.00605,,,,,,,,,
1736674529069,,,,,,,,,,-0.22165,-0.1626625,0.020624999,,,,,,,,,
1736674529079,,,,,,,,,,-0.3216125,0.0396,0.011,,,,,,,,,
1736674529089,,,,,,,,,,-0.34925,0.25135,-0.030524999,,,,,,,,,
1736674529099,,,,,,,,,,-0.3014,0.34925,-0.06765,,,,,,,,,
1736674529110,,,,,,,,,,-0.2066625,0.3014,-0.078375,,,,,,,,,
1736674529120,,,,,,,,,,-0.1056,0.1353,-0.0559625,,,,,,,,,
1736674529130,,,,,,,,,,-0.0182875,-0.0380875,-0.0262625,,,,,,,,,
1736674529141,,,,,,,,,,0.0583,-0.1467125,-0.0081124995,,,,,,,,,
1736674529151,,,,,,,,,,0.1232,-0.2019875,4.125E-4,,,,,,,,,
1736674529160,,,,,,,,,,0.162525,-0.21367499,0.002475,,,,,,,,,
1736674529170,,,,,,,,,,0.17215,-0.1871375,0.0078375,,,,,,,,,
1736674529181,,,,,,,,,,0.1530375,-0.149875,0.0226875,,,,,,,,,
1736674529191,,,,,,,,,,0.120037496,-0.1062875,0.0408375,,,,,,,,,
1736674529200,,,,,,,,,,0.0774125,-0.0636625,0.06325,,,,,,,,,
1736674529210,,,,,,,,,,0.032725,-0.0306625,0.077,,,,,,,,,
1736674529220,,,,,,,,,,-0.0066,-0.01155,0.0823625,,,,,,,,,
1736674529230,,,,,,,,,,-0.0386375,-8.25E-4,0.085525,,,,,,,,,
1736674529241,,,,,,,,,,-0.064075,-8.25E-4,0.09295,,,,,,,,,
1736674529251,,,,,,,,,,-0.0875875,-0.003025,0.103675,,,,,,,,,
1736674529260,,,,,,,,,,-0.1067,0.0097624995,0.1111,,,,,,,,,
1736674529270,,,,,,,,,,-0.12045,0.0363,0.1111,,,,,,,,,
1736674529281,,,,,,,,,,-0.1269125,0.0746625,0.102575,,,,,,,,,
1736674529291,,,,,,,,,,-0.1194875,0.104499996,0.0823625,,,,,,,,,
1736674529300,,,,,,,,,,-0.104499996,0.111925,0.061049998,,,,,,,,,
1736674529310,,,,,,,,,,-0.082225,0.0768625,0.038775,,,,,,,,,
1736674529321,,,,,,,,,,-0.0598125,0.02145,0.0237875,,,,,,,,,
1736674529331,,,,,,,,,,-0.0396,-0.013612499,0.015262499,,,,,,,,,
1736674529342,,,,,,,,,,-0.0204875,-0.0232375,0.0143,,,,,,,,,
1736674529352,,,,,,,,,,-0.0045375,-0.0169125,0.020624999,,,,,,,,,
1736674529362,,,,,,,,,,0.00715,-0.014712499,0.02915,,,,,,,,,
1736674529372,,,,,,,,,,0.016775,0.0023375,0.036575,,,,,,,,,
1736674529381,,,,,,,,,,0.0188375,0.0427625,0.038775,,,,,,,,,
1736674529391,,,,,,,,,,0.016775,0.0842875,0.036575,,,,,,,,,
1736674529402,,,,,,,,,,0.0125124995,0.104499996,0.0312125,,,,,,,,,
1736674529412,,,,,,,,,,0.00825,0.08745,0.0237875,,,,,,,,,
1736674529422,,,,,,,,,,0.0061875,0.02365,0.0100375,,,,,,,,,
1736674529432,,,,,,,,,,0.00935,-0.051975,-0.00605,,,,,,,,,
1736674529441,,,,,,,,,,0.017875,-0.0935,-0.0155375,,,,,,,,,
1736674529451,,,,,,,,,,0.0284625,-0.0903375,-0.012375,,,,,,,,,
1736674529461,,,,,,,,,,0.04235,-0.0616,4.125E-4,,,,,,,,,
1736674529471,,,,,,,,,,0.047575,-0.0275,0.0259875,,,,,,,,,
1736674529481,,,,,,,,,,0.0433125,0.0066,0.051425,,,,,,,,,
1736674529491,,,,,,,,,,0.032725,0.0331375,0.0664125,,,,,,,,,
1736674529501,,,,,,,,,,0.014575,0.0363,0.070675,,,,,,,,,
1736674529511,,,,,,,,,,-0.0066,0.0279125,0.061049998,,,,,,,,,
1736674529521,,,,,,,,,,-0.0279125,0.0182875,0.0451,,,,,,,,,
1736674529531,,,,,,,,,,-0.0407,0.014025,0.02695,,,,,,,,,
1736674529542,,,,,,,,,,-0.048125,0.0108624995,0.011,,,,,,,,,
1736674529552,,,,,,,,,,-0.0523875,0.0066,0.0015125,,,,,,,,,
1736674529561,,,,,,,,,,-0.056649998,0.012925,0.005775,,,,,,,,,
1736674529572,,,,,,,,,,-0.0598125,0.02145,0.019524999,,,,,,,,,
1736674529583,,,,,,,,,,-0.05555,0.0182875,0.0397375,,,,,,,,,
1736674529593,,,,,,,,,,-0.0523875,0.011825,0.0482625,,,,,,,,,
1736674529602,,,,,,,,,,-0.0427625,-8.25E-4,0.0482625,,,,,,,,,
1736674529612,,,,,,,,,,-0.0290125,-0.018975,0.044,,,,,,,,,
1736674529623,,,,,,,,,,-0.0088,-0.0275,0.037675,,,,,,,,,
1736674529633,,,,,,,,,,0.013612499,-0.036025,0.0323125,,,,,,,,,
1736674529642,,,,,,,,,,0.041249998,-0.1467125,0.0334125,,,,,,,,,
1736674529652,,,,,,,,,,0.0699875,-0.3009875,0.053625,,,,,,,,,
1736674529663,,,,,,,,,,0.07425,-0.231825,0.0886875,,,,,,,,,
1736674529673,,,,,,,,,,0.0561,0.0257125,0.0983125,,,,,,,,,
1736674529682,,,,,,,,,,0.0210375,0.25135,0.0642125,,,,,,,,,
1736674529692,,,,,,,,,,-0.0290125,0.32587498,0.0121,,,,,,,,,
1736674529702,,,,,,,,,,-0.081125,0.2726625,-0.011275,,,,,,,,,
1736674529712,,,,,,,,,,-0.12155,0.0906125,0.011,,,,,,,,,
1736674529723,,,,,,,,,,-0.1332375,-0.0924,0.0345125,,,,,,,,,
1736674529733,,,,,,,,,,-0.1172875,-0.1584,0.036575,,,,,,,,,
1736674529743,,,,,,,,,,-0.082225,-0.116875,0.0163625,,,,,,,,,
1736674529753,,,,,,,,,,-0.033275,-0.051975,-0.00495,,,,,,,,,
1736674529762,,,,,,,,,,0.013612499,-0.017875,-0.00605,,,,,,,,,
1736674529772,,,,,,,,,,0.047575,-0.0169125,0.0237875,,,,,,,,,
1736674529782,,,,,,,,,,0.0625625,-0.020075,0.0589875,,,,,,,,,
1736674529792,,,,,,,,,,0.0688875,-0.0221375,0.078099996,,,,,,,,,
1736674529804,,,,,,,,,,0.0603625,-0.018975,0.0792,,,,,,,,,
1736674529814,,,,,,,,,,0.041249998,-0.0210375,0.0716375,,,,,,,,,
1736674529823,,,,,,,,,,0.00935,-0.0169125,0.0653125,,,,,,,,,
1736674529833,,,,,,,,,,-0.032175,-0.001925,0.061049998,,,,,,,,,
1736674529843,,,,,,,,,,-0.0757625,0.0182875,0.0504625,,,,,,,,,
1736674529853,,,,,,,,,,-0.12155,0.0257125,0.0312125,,,,,,,,,
1736674529864,,,,,,,,,,-0.15565,0.0160875,0.0067375,,,,,,,,,
1736674529874,,,,,,,,,,-0.1747625,0.0086624995,-0.0103124995,,,,,,,,,
1736674529883,,,,,,,,,,-0.1769625,0.0066,-0.0155375,,,,,,,,,
1736674529893,,,,,,,,,,-0.1588125,0.015125,-0.011275,,,,,,,,,
1736674529904,,,,,,,,,,-0.1247125,0.0246125,-0.00275,,,,,,,,,
1736674529914,,,,,,,,,,-0.0790625,0.029975,0.005775,,,,,,,,,
1736674529923,,,,,,,,,,-0.032175,0.0246125,0.0099,,,,,,,,,
1736674529933,,,,,,,,,,0.013612499,0.0066,0.0163625,,,,,,,,,
1736674529943,,,,,,,,,,0.0540375,-0.013612499,0.02915,,,,,,,,,
1736674529953,,,,,,,,,,0.0763125,-0.037125,0.0334125,,,,,,,,,
1736674529963,,,,,,,,,,0.081675,-0.051975,0.0312125,,,,,,,,,
1736674529973,,,,,,,,,,0.0710875,-0.050875,0.0259875,,,,,,,,,
1736674529984,,,,,,,,,,0.0466125,-0.0295625,0.0248875,,,,,,,,,
1736674529994,,,,,,,,,,0.015675,-0.001925,0.0345125,,,,,,,,,
1736674530004,,,,,,,,,,-0.015125,0.0171875,0.0429,,,,,,,,,
1736674530014,,,,,,,,,,-0.0375375,0.029975,0.0429,,,,,,,,,
1736674530024,,,,,,,,,,-0.049225,0.0374,0.0386375,,,,,,,,,
1736674530035,,,,,,,,,,-0.0512875,0.029975,0.035475,,,,,,,,,
1736674530044,,,,,,,,,,-0.0460625,0.0171875,0.036575,,,,,,,,,
1736674530054,,,,,,,,,,-0.031075,0.0171875,0.035475,,,,,,,,,
1736674530065,,,,,,,,,,-0.0119624995,0.02035,0.0345125,,,,,,,,,
1736674530075,,,,,,,,,,0.0061875,0.012925,0.0226875,,,,,,,,,
1736674530084,,,,,,,,,,0.013612499,-0.003025,0.0099,,,,,,,,,
1736674530094,,,,,,,,,,0.0050875,-0.013612499,0.0078375,,,,,,,,,
1736674530104,,,,,,,,,,-0.015125,-0.0158125,0.011,,,,,,,,,
