timestamp,acc_x,acc_y,acc_z,mag_x,mag_y,mag_z,gra_x,gra_y,gra_z,gyr_x,gyr_y,gyr_z,linear_x,linear_y,linear_z,rot_x,rot_y,rot_z,light,pressure,proximity
1736666363045,-0.77895004,1.6510501,10.59195,,,,,,,,,,,,,,,,,,
1736666363055,-0.62805,1.7580001,10.345051,,,,,,,,,,,,,,,,,,
1736666363065,-0.67095006,1.8570001,10.13895,,,,,,,,,,,,,,,,,,
1736666363075,-0.71895003,1.9519501,9.913951,,,,,,,,,,,,,,,,,,
1736666363085,-0.74805003,2.0389502,9.77805,,,,,,,,,,,,,,,,,,
1736666363095,-0.70005006,2.091,9.703051,,,,,,,,,,,,,,,,,,
1736666363105,-0.60195005,2.0700002,9.67695,,,,,,,,,,,,,,,,,,
1736666363115,-0.54,2.01495,9.72,,,,,,,,,,,,,,,,,,
1736666363125,-0.50100005,1.9570501,9.835051,,,,,,,,,,,,,,,,,,
1736666363135,-0.50100005,1.84905,10.066951,,,,,,,,,,,,,,,,,,
1736666363146,-0.58005005,1.7230501,10.25895,,,,,,,,,,,,,,,,,,
1736666363156,-0.64995,1.608,10.387951,,,,,,,,,,,,,,,,,,
1736666363166,-0.64695,1.5810001,10.495951,,,,,,,,,,,,,,,,,,
1736666363176,-0.64995,1.5960001,10.489051,,,,,,,,,,,,,,,,,,
1736666363185,-0.657,1.6200001,10.43805,,,,,,,,,,,,,,,,,,
1736666363195,-0.657,1.7010001,10.41705,,,,,,,,,,,,,,,,,,
1736666363206,-0.58995,1.7580001,10.422001,,,,,,,,,,,,,,,,,,
1736666363216,-0.56295,1.7560501,10.434001,,,,,,,,,,,,,,,,,,
1736666363225,-0.53205,1.7560501,10.41705,,,,,,,,,,,,,,,,,,
1736666363236,-0.51600003,1.74405,10.330951,,,,,,,,,,,,,,,,,,
1736666363246,-0.54705,1.6870501,10.231951,,,,,,,,,,,,,,,,,,
1736666363256,-0.56295,1.6720501,10.189051,,,,,,,,,,,,,,,,,,
1736666363266,-0.61095005,1.6530001,10.201051,,,,,,,,,,,,,,,,,,
1736666363276,-0.59895,1.65795,10.23705,,,,,,,,,,,,,,,,,,
1736666363286,-0.59895,1.69395,10.2640505,,,,,,,,,,,,,,,,,,
1736666363296,-0.60405004,1.7179501,10.3279505,,,,,,,,,,,,,,,,,,
1736666363306,-0.642,1.69095,10.371,,,,,,,,,,,,,,,,,,
1736666363316,-0.693,1.6789501,10.345051,,,,,,,,,,,,,,,,,,
1736666363326,-0.67800003,1.6789501,10.27995,,,,,,,,,,,,,,,,,,
1736666363336,-0.64500004,1.677,10.276051,,,,,,,,,,,,,,,,,,
1736666363346,-0.67095006,1.6819501,10.255951,,,,,,,,,,,,,,,,,,
1736666363356,-0.72900003,1.6390501,10.24005,,,,,,,,,,,,,,,,,,
1736666363367,-0.67395,1.66305,10.26105,,,,,,,,,,,,,,,,,,
1736666363377,-0.55905,1.74705,10.321051,,,,,,,,,,,,,,,,,,
1736666363387,-0.54405004,1.6990501,10.299001,,,,,,,,,,,,,,,,,,
1736666363397,-0.60195005,1.644,10.254001,,,,,,,,,,,,,,,,,,
1736666363406,-0.60195005,1.6030501,10.23705,,,,,,,,,,,,,,,,,,
1736666363416,-0.549,1.6150501,10.192051,,,,,,,,,,,,,,,,,,
1736666363427,-0.58005005,1.6150501,10.158001,,,,,,,,,,,,,,,,,,
1736666363437,-0.62295,1.62405,10.180051,,,,,,,,,,,,,,,,,,
1736666363446,-0.64995,1.65795,10.22805,,,,,,,,,,,,,,,,,,
1736666363456,-0.68100005,1.641,10.28295,,,,,,,,,,,,,,,,,,
1736666363467,-0.64695,1.6530001,10.2640505,,,,,,,,,,,,,,,,,,
1736666363477,-0.60195005,1.7299501,10.24695,,,,,,,,,,,,,,,,,,
1736666363487,-0.59205,1.7629501,10.194,,,,,,,,,,,,,,,,,,
1736666363497,-0.60705,1.7580001,10.12005,,,,,,,,,,,,,,,,,,
1736666363507,-0.62295,1.7509501,10.12905,,,,,,,,,,,,,,,,,,
1736666363517,-0.61395,1.74195,10.189051,,,,,,,,,,,,,,,,,,
1736666363527,-0.59895,1.6840501,10.21605,,,,,,,,,,,,,,,,,,
1736666363537,-0.597,1.6200001,10.25205,,,,,,,,,,,,,,,,,,
1736666363547,-0.597,1.5790501,10.255951,,,,,,,,,,,,,,,,,,
1736666363557,-0.60705,1.5670501,10.28505,,,,,,,,,,,,,,,,,,
1736666363567,-0.61605,1.57395,10.306951,,,,,,,,,,,,,,,,,,
1736666363577,-0.58500004,1.5619501,10.290001,,,,,,,,,,,,,,,,,,
1736666363588,-0.57495004,1.5310501,10.27095,,,,,,,,,,,,,,,,,,
1736666363597,-0.56805,1.53795,10.28505,,,,,,,,,,,,,,,,,,
1736666363607,-0.549,1.5450001,10.288051,,,,,,,,,,,,,,,,,,
1736666363617,-0.57105005,1.5090001,10.335,,,,,,,,,,,,,,,,,,
1736666363628,-0.52995,1.4809501,10.422001,,,,,,,,,,,,,,,,,,
1736666363638,-0.41295,1.4860501,10.489051,,,,,,,,,,,,,,,,,,
1736666363648,-0.34605002,1.4449501,10.375951,,,,,,,,,,,,,,,,,,
1736666363658,-0.34305,1.4500501,10.21605,,,,,,,,,,,,,,,,,,
1736666363667,-0.33405003,1.46895,10.15305,,,,,,,,,,,,,,,,,,
1736666363677,-0.40800002,1.5330001,10.198951,,,,,,,,,,,,,,,,,,
1736666363687,-0.45105,1.5600001,10.21605,,,,,,,,,,,,,,,,,,
1736666363697,-0.46995002,1.5810001,10.219951,,,,,,,,,,,,,,,,,,
1736666363709,-0.41700003,1.5790501,10.299001,,,,,,,,,,,,,,,,,,
1736666363719,-0.393,1.5120001,10.335,,,,,,,,,,,,,,,,,,
1736666363728,-0.393,1.38705,10.255951,,,,,,,,,,,,,,,,,,
1736666363738,-0.40500003,1.3249501,10.255951,,,,,,,,,,,,,,,,,,
1736666363748,-0.42495003,1.3420501,10.26795,,,,,,,,,,,,,,,,,,
1736666363758,-0.453,1.3950001,10.311001,,,,,,,,,,,,,,,,,,
1736666363768,-0.43905002,1.46895,10.323001,,,,,,,,,,,,,,,,,,
1736666363778,-0.42705002,1.4980501,10.333051,,,,,,,,,,,,,,,,,,
1736666363788,-0.43695003,1.4929501,10.321051,,,,,,,,,,,,,,,,,,
1736666363798,-0.42000002,1.44,10.30395,,,,,,,,,,,,,,,,,,
1736666363808,-0.41295,1.3800001,10.29705,,,,,,,,,,,,,,,,,,
1736666363818,-0.384,1.3990501,10.323001,,,,,,,,,,,,,,,,,,
1736666363828,-0.36195,1.41795,10.31595,,,,,,,,,,,,,,,,,,
1736666363838,-0.41505003,1.4280001,10.2949505,,,,,,,,,,,,,,,,,,
1736666363849,-0.44400004,1.452,10.28295,,,,,,,,,,,,,,,,,,
1736666363859,-0.46800002,1.5000001,10.302,,,,,,,,,,,,,,,,,,
1736666363869,-0.45105,1.5000001,10.28505,,,,,,,,,,,,,,,,,,
1736666363879,-0.46095002,1.4830501,10.28295,,,,,,,,,,,,,,,,,,
1736666363888,-0.47295,1.47405,10.22805,,,,,,,,,,,,,,,,,,
1736666363898,-0.47505003,1.4620501,10.225051,,,,,,,,,,,,,,,,,,
1736666363909,-0.47700003,1.45395,10.299001,,,,,,,,,,,,,,,,,,
1736666363918,-0.504,1.43505,10.371,,,,,,,,,,,,,,,,,,
1736666363928,-0.49905002,1.43805,10.386001,,,,,,,,,,,,,,,,,,
1736666363939,-0.44595003,1.43505,10.362,,,,,,,,,,,,,,,,,,
1736666363949,-0.46800002,1.4929501,10.306951,,,,,,,,,,,,,,,,,,
1736666363959,-0.504,1.50195,10.26105,,,,,,,,,,,,,,,,,,
1736666363969,-0.49605003,1.524,10.23495,,,,,,,,,,,,,,,,,,
1736666363979,-0.50595003,1.5090001,10.266001,,,,,,,,,,,,,,,,,,
1736666363989,-0.51105005,1.46895,10.335,,,,,,,,,,,,,,,,,,
1736666363999,-0.48000002,1.404,10.39305,,,,,,,,,,,,,,,,,,
1736666364009,-0.44400004,1.32,10.422001,,,,,,,,,,,,,,,,,,
1736666364020,-0.39105,1.26795,10.39995,,,,,,,,,,,,,,,,,,
1736666364030,-0.36,1.27995,10.357051,,,,,,,,,,,,,,,,,,
1736666364040,-0.35295,1.34895,10.31595,,,,,,,,,,,,,,,,,,
1736666364049,-0.40995002,1.3920001,10.266001,,,,,,,,,,,,,,,,,,
1736666364059,-0.47700003,1.4809501,10.278001,,,,,,,,,,,,,,,,,,
1736666364069,-0.58005005,1.5330001,10.255951,,,,,,,,,,,,,,,,,,
1736666364079,-0.57495004,1.536,10.243951,,,,,,,,,,,,,,,,,,
1736666364090,-0.50595003,1.50495,10.198951,,,,,,,,,,,,,,,,,,
1736666364100,-0.46305,1.4980501,10.1629505,,,,,,,,,,,,,,,,,,
1736666364109,-0.453,1.50705,10.14105,,,,,,,,,,,,,,,,,,
1736666364119,-0.44595003,1.50495,10.156051,,,,,,,,,,,,,,,,,,
1736666364129,-0.45600003,1.5139501,10.24905,,,,,,,,,,,,,,,,,,
1736666364139,-0.49605003,1.4640001,10.378051,,,,,,,,,,,,,,,,,,
1736666364149,-0.45105,1.40205,10.443001,,,,,,,,,,,,,,,,,,
1736666364159,-0.38595003,1.3110001,10.42905,,,,,,,,,,,,,,,,,,
1736666364171,-0.38895002,1.27995,10.407001,,,,,,,,,,,,,,,,,,
1736666364181,-0.42900002,1.2870001,10.44795,,,,,,,,,,,,,,,,,,
1736666364190,-0.492,1.3420501,10.434001,,,,,,,,,,,,,,,,,,
1736666364200,-0.537,1.3969501,10.42605,,,,,,,,,,,,,,,,,,
1736666364210,-0.51795,1.44,10.371,,,,,,,,,,,,,,,,,,
1736666364220,-0.453,1.46595,10.2949505,,,,,,,,,,,,,,,,,,
1736666364230,-0.41700003,1.4640001,10.243951,,,,,,,,,,,,,,,,,,
1736666364240,-0.44895002,1.4569501,10.218,,,,,,,,,,,,,,,,,,
1736666364251,-0.47295,1.50195,10.1650505,,,,,,,,,,,,,,,,,,
1736666364261,-0.49905002,1.5499501,10.14105,,,,,,,,,,,,,,,,,,
1736666364270,-0.45795003,1.5600001,10.20405,,,,,,,,,,,,,,,,,,
1736666364280,-0.384,1.524,10.218,,,,,,,,,,,,,,,,,,
1736666364291,-0.34605002,1.47105,10.186951,,,,,,,,,,,,,,,,,,
1736666364301,-0.29505002,1.404,10.15095,,,,,,,,,,,,,,,,,,
1736666364310,-0.28800002,1.3660501,10.1629505,,,,,,,,,,,,,,,,,,
1736666364320,-0.34095,1.3249501,10.231951,,,,,,,,,,,,,,,,,,
1736666364331,-0.37395,1.2940501,10.318951,,,,,,,,,,,,,,,,,,
1736666364341,-0.36,1.27995,10.38105,,,,,,,,,,,,,,,,,,
1736666364351,-0.372,1.28205,10.43595,,,,,,,,,,,,,,,,,,
1736666364361,-0.39105,1.27005,10.43595,,,,,,,,,,,,,,,,,,
1736666364370,-0.36705002,1.27995,10.390051,,,,,,,,,,,,,,,,,,
1736666364380,-0.40995002,1.3279501,10.371,,,,,,,,,,,,,,,,,,
1736666364390,-0.432,1.3660501,10.42395,,,,,,,,,,,,,,,,,,
1736666364401,-0.45105,1.383,10.48095,,,,,,,,,,,,,,,,,,
1736666364411,-0.432,1.35405,10.503,,,,,,,,,,,,,,,,,,
1736666364421,-0.41700003,1.31805,10.498051,,,,,,,,,,,,,,,,,,
1736666364431,-0.38595003,1.296,10.43805,,,,,,,,,,,,,,,,,,
1736666364441,-0.393,1.3590001,10.354951,,,,,,,,,,,,,,,,,,
1736666364451,-0.41700003,1.45395,10.243951,,,,,,,,,,,,,,,,,,
1736666364461,-0.42705002,1.524,10.156051,,,,,,,,,,,,,,,,,,
1736666364471,-0.41295,1.5480001,10.110001,,,,,,,,,,,,,,,,,,
1736666364481,-0.42705002,1.53795,10.074,,,,,,,,,,,,,,,,,,
1736666364492,-0.40095,1.46895,10.09095,,,,,,,,,,,,,,,,,,
1736666364502,-0.38895002,1.416,10.177051,,,,,,,,,,,,,,,,,,
1736666364512,-0.40995002,1.38495,10.342951,,,,,,,,,,,,,,,,,,
1736666364522,-0.441,1.3560001,10.422001,,,,,,,,,,,,,,,,,,
1736666364532,-0.46995002,1.3750501,10.383,,,,,,,,,,,,,,,,,,
1736666364541,-0.42195,1.38495,10.290001,,,,,,,,,,,,,,,,,,
1736666364551,-0.39795002,1.3590001,10.210951,,,,,,,,,,,,,,,,,,
1736666364561,-0.43395,1.31805,10.194,,,,,,,,,,,,,,,,,,
1736666364572,-0.48900002,1.2919501,10.27995,,,,,,,,,,,,,,,,,,
1736666364582,-0.50805,1.2529501,10.374001,,,,,,,,,,,,,,,,,,
1736666364591,-0.37395,1.3560001,10.45695,,,,,,,,,,,,,,,,,,
1736666364601,-0.34995002,1.3780501,10.43805,,,,,,,,,,,,,,,,,,
1736666364611,-0.37005,1.3279501,10.26795,,,,,,,,,,,,,,,,,,
1736666364621,-0.42495003,1.3249501,10.149,,,,,,,,,,,,,,,,,,
1736666364631,-0.45600003,1.3060501,10.156051,,,,,,,,,,,,,,,,,,
1736666364642,-0.45795003,1.38495,10.222951,,,,,,,,,,,,,,,,,,
1736666364652,-0.45600003,1.43805,10.242001,,,,,,,,,,,,,,,,,,
1736666364662,-0.48405004,1.4089501,10.12695,,,,,,,,,,,,,,,,,,
1736666364673,-0.47505003,1.3780501,10.030951,,,,,,,,,,,,,,,,,,
1736666364683,-0.43905002,1.368,9.967051,,,,,,,,,,,,,,,,,,
1736666364692,-0.38595003,1.3920001,9.948001,,,,,,,,,,,,,,,,,,
1736666364702,-0.39105,1.3990501,9.96195,,,,,,,,,,,,,,,,,,
1736666364712,-0.432,1.3729501,9.969001,,,,,,,,,,,,,,,,,,
1736666364722,-0.43695003,1.3609501,10.017,,,,,,,,,,,,,,,,,,
1736666364732,-0.46800002,1.3660501,10.06005,,,,,,,,,,,,,,,,,,
1736666364742,-0.47505003,1.3729501,10.086,,,,,,,,,,,,,,,,,,
1736666364752,-0.42195,1.3630501,10.122001,,,,,,,,,,,,,,,,,,
1736666364763,-0.39600003,1.335,10.137,,,,,,,,,,,,,,,,,,
1736666364773,-0.38205,1.335,10.15305,,,,,,,,,,,,,,,,,,
1736666364783,-0.37905002,1.3369501,10.10295,,,,,,,,,,,,,,,,,,
1736666364793,-0.39105,1.35105,10.042951,,,,,,,,,,,,,,,,,,
1736666364803,-0.39105,1.3560001,10.030951,,,,,,,,,,,,,,,,,,
1736666364812,-0.39795002,1.335,10.110001,,,,,,,,,,,,,,,,,,
1736666364822,-0.40995002,1.32,10.149,,,,,,,,,,,,,,,,,,
1736666364833,-0.40305,1.299,10.10805,,,,,,,,,,,,,,,,,,
1736666364843,-0.33405003,1.32,10.053,,,,,,,,,,,,,,,,,,
1736666364852,-0.30705002,1.335,10.045951,,,,,,,,,,,,,,,,,,
1736666364862,-0.33600003,1.34895,10.042951,,,,,,,,,,,,,,,,,,
1736666364873,-0.38205,1.38705,10.029,,,,,,,,,,,,,,,,,,
1736666364883,-0.39600003,1.3920001,10.05795,,,,,,,,,,,,,,,,,,
1736666364893,-0.37905002,1.3660501,10.065001,,,,,,,,,,,,,,,,,,
1736666364903,-0.36495003,1.335,10.078951,,,,,,,,,,,,,,,,,,
1736666364913,-0.34605002,1.3249501,10.110001,,,,,,,,,,,,,,,,,,
1736666364923,-0.35295,1.368,10.1320505,,,,,,,,,,,,,,,,,,
1736666364933,-0.37695003,1.368,10.054951,,,,,,,,,,,,,,,,,,
1736666364943,-0.37005,1.368,10.045951,,,,,,,,,,,,,,,,,,
1736666364953,-0.36195,1.3609501,10.06995,,,,,,,,,,,,,,,,,,
1736666364963,-0.36195,1.35105,10.074,,,,,,,,,,,,,,,,,,
1736666364973,-0.34800002,1.31805,10.10595,,,,,,,,,,,,,,,,,,
1736666364983,-0.34305,1.3110001,10.08405,,,,,,,,,,,,,,,,,,
1736666364993,-0.372,1.2940501,10.08405,,,,,,,,,,,,,,,,,,
1736666365003,-0.37905002,1.3230001,10.1629505,,,,,,,,,,,,,,,,,,
1736666365013,-0.291,1.4470501,10.198951,,,,,,,,,,,,,,,,,,
1736666365023,-0.33405003,1.43805,10.06005,,,,,,,,,,,,,,,,,,
1736666365033,-0.42195,1.404,9.913951,,,,,,,,,,,,,,,,,,
1736666365043,-0.38595003,1.44,9.9210005,,,,,,,,,,,,,,,,,,
1736666365054,-0.34800002,1.4089501,9.967051,,,,,,,,,,,,,,,,,,
1736666365064,-0.33600003,1.3990501,9.991051,,,,,,,,,,,,,,,,,,
1736666365074,-0.25905,1.4449501,10.054951,,,,,,,,,,,,,,,,,,
1736666365084,-0.25905,1.43295,9.99495,,,,,,,,,,,,,,,,,,
1736666365093,-0.36,1.3990501,9.885,,,,,,,,,,,,,,,,,,
1736666365104,-0.39105,1.4089501,9.80895,,,,,,,,,,,,,,,,,,
1736666365114,-0.384,1.4140501,9.744,,,,,,,,,,,,,,,,,,
1736666365124,-0.36195,1.4500501,9.745951,,,,,,,,,,,,,,,,,,
1736666365135,-0.36195,1.45395,9.75405,,,,,,,,,,,,,,,,,,
1736666365145,-0.32595003,1.45905,9.74895,,,,,,,,,,,,,,,,,,
1736666365154,-0.31395,1.4500501,9.71805,,,,,,,,,,,,,,,,,,
1736666365164,-0.31005,1.41795,9.721951,,,,,,,,,,,,,,,,,,
1736666365174,-0.24495001,1.4899501,9.8230505,,,,,,,,,,,,,,,,,,
1736666365184,-0.25005,1.4929501,9.861,,,,,,,,,,,,,,,,,,
1736666365194,-0.33405003,1.47405,9.844951,,,,,,,,,,,,,,,,,,
1736666365204,-0.37905002,1.4620501,9.892051,,,,,,,,,,,,,,,,,,
1736666365214,-0.39600003,1.4449501,9.948001,,,,,,,,,,,,,,,,,,
1736666365224,-0.40800002,1.46895,9.95505,,,,,,,,,,,,,,,,,,
1736666365235,-0.41700003,1.4929501,9.993,,,,,,,,,,,,,,,,,,
1736666365245,-0.372,1.4830501,10.05,,,,,,,,,,,,,,,,,,
1736666365254,-0.31395,1.43295,10.021951,,,,,,,,,,,,,,,,,,
1736666365264,-0.291,1.3950001,9.957001,,,,,,,,,,,,,,,,,,
1736666365275,-0.3,1.3440001,9.916051,,,,,,,,,,,,,,,,,,
1736666365285,-0.35805002,1.33905,9.936001,,,,,,,,,,,,,,,,,,
1736666365295,-0.35805002,1.34895,9.93795,,,,,,,,,,,,,,,,,,
1736666365305,-0.303,1.3630501,9.892051,,,,,,,,,,,,,,,,,,
1736666365315,-0.25005,1.38705,9.8230505,,,,,,,,,,,,,,,,,,
1736666365325,-0.21900001,1.4260501,9.792001,,,,,,,,,,,,,,,,,,
1736666365336,-0.27600002,1.42305,9.721951,,,,,,,,,,,,,,,,,,
1736666365345,-0.34800002,1.4260501,9.675,,,,,,,,,,,,,,,,,,
1736666365356,-0.36495003,1.416,9.684,,,,,,,,,,,,,,,,,,
1736666365366,-0.36195,1.404,9.733951,,,,,,,,,,,,,,,,,,
1736666365375,-0.35295,1.4089501,9.769951,,,,,,,,,,,,,,,,,,
1736666365385,-0.34605002,1.4500501,9.76305,,,,,,,,,,,,,,,,,,
1736666365395,-0.36195,1.4809501,9.745951,,,,,,,,,,,,,,,,,,
1736666365405,-0.38595003,1.43295,9.712951,,,,,,,,,,,,,,,,,,
1736666365415,-0.35805002,1.50495,9.745951,,,,,,,,,,,,,,,,,,
1736666365425,-0.24705002,1.5960001,9.7890005,,,,,,,,,,,,,,,,,,
1736666365436,-0.28095,1.53795,9.715051,,,,,,,,,,,,,,,,,,
1736666365446,-0.36195,1.4470501,9.612,,,,,,,,,,,,,,,,,,
1736666365455,-0.43395,1.3609501,9.61005,,,,,,,,,,,,,,,,,,
1736666365465,-0.46500003,1.371,9.682051,,,,,,,,,,,,,,,,,,
1736666365475,-0.43395,1.38495,9.768001,,,,,,,,,,,,,,,,,,
1736666365485,-0.34995002,1.42095,9.859051,,,,,,,,,,,,,,,,,,
1736666365495,-0.27600002,1.42095,9.97605,,,,,,,,,,,,,,,,,,
1736666365505,-0.25500003,1.4070001,9.97395,,,,,,,,,,,,,,,,,,
1736666365515,-0.23505001,1.39005,9.89505,,,,,,,,,,,,,,,,,,
1736666365525,-0.24300002,1.3750501,9.813001,,,,,,,,,,,,,,,,,,
1736666365536,-0.29295,1.3630501,9.73005,,,,,,,,,,,,,,,,,,
1736666365546,-0.32895002,1.38705,9.721951,,,,,,,,,,,,,,,,,,
1736666365555,-0.31005,1.3729501,9.700951,,,,,,,,,,,,,,,,,,
1736666365565,-0.252,1.371,9.684,,,,,,,,,,,,,,,,,,
1736666365576,-0.22095,1.34895,9.687,,,,,,,,,,,,,,,,,,
1736666365586,-0.23805001,1.35405,9.675,,,,,,,,,,,,,,,,,,
1736666365596,-0.31005,1.371,9.670051,,,,,,,,,,,,,,,,,,
1736666365606,-0.37695003,1.38705,9.64605,,,,,,,,,,,,,,,,,,
1736666365616,-0.38205,1.3969501,9.65295,,,,,,,,,,,,,,,,,,
1736666365626,-0.324,1.41795,9.706051,,,,,,,,,,,,,,,,,,
1736666365636,-0.31905,1.4470501,9.721951,,,,,,,,,,,,,,,,,,
1736666365646,-0.32895002,1.4899501,9.691051,,,,,,,,,,,,,,,,,,
1736666365656,-0.372,1.5090001,9.61005,,,,,,,,,,,,,,,,,,
1736666365666,-0.42000002,1.5169501,9.604951,,,,,,,,,,,,,,,,,,
1736666365676,-0.42000002,1.4809501,9.660001,,,,,,,,,,,,,,,,,,
1736666365686,-0.37905002,1.4260501,9.691051,,,,,,,,,,,,,,,,,,
1736666365697,-0.34305,1.3590001,9.745951,,,,,,,,,,,,,,,,,,
1736666365707,-0.31005,1.3060501,9.744,,,,,,,,,,,,,,,,,,
1736666365716,-0.29505002,1.263,9.660001,,,,,,,,,,,,,,,,,,
1736666365726,-0.28305,1.263,9.604951,,,,,,,,,,,,,,,,,,
1736666365736,-0.30705002,1.27005,9.615001,,,,,,,,,,,,,,,,,,
1736666365746,-0.35505003,1.2940501,9.65295,,,,,,,,,,,,,,,,,,
1736666365756,-0.38595003,1.263,9.627001,,,,,,,,,,,,,,,,,,
1736666365766,-0.33105,1.28205,9.688951,,,,,,,,,,,,,,,,,,
1736666363064,,,,-39.112503,-9.056251,-21.056252,,,,,,,,,,,,,,,
1736666363097,,,,-1.44375,7.74375,-18.6,,,,,,,,,,,,,,,
1736666363117,,,,-1.44375,7.4437504,-18.956251,,,,,,,,,,,,,,,
1736666363137,,,,-0.90000004,7.2562504,-19.44375,,,,,,,,,,,,,,,
1736666363159,,,,-0.54375005,7.2000003,-19.612501,,,,,,,,,,,,,,,
1736666363179,,,,-0.6,6.95625,-19.44375,,,,,,,,,,,,,,,
1736666363198,,,,-0.6,7.5000005,-19.3125,,,,,,,,,,,,,,,
1736666363218,,,,-1.44375,7.4437504,-19.2,,,,,,,,,,,,,,,
1736666363237,,,,-1.6125001,7.55625,-19.25625,,,,,,,,,,,,,,,
1736666363258,,,,-1.6125001,7.9125004,-19.612501,,,,,,,,,,,,,,,
1736666363278,,,,-1.44375,7.8562503,-19.44375,,,,,,,,,,,,,,,
1736666363297,,,,-1.2,8.34375,-19.44375,,,,,,,,,,,,,,,
1736666363317,,,,-0.95625,8.34375,-19.3125,,,,,,,,,,,,,,,
1736666363337,,,,-1.1437501,8.512501,-19.143751,,,,,,,,,,,,,,,
1736666363357,,,,-1.25625,8.700001,-19.5,,,,,,,,,,,,,,,
1736666363377,,,,-0.95625,8.94375,-19.3125,,,,,,,,,,,,,,,
1736666363398,,,,-1.2,9.056251,-19.5,,,,,,,,,,,,,,,
1736666363417,,,,-1.0125,8.8125,-19.9125,,,,,,,,,,,,,,,
1736666363438,,,,-1.1437501,8.64375,-19.85625,,,,,,,,,,,,,,,
1736666363457,,,,-1.3125,8.34375,-20.1,,,,,,,,,,,,,,,
1736666363477,,,,-1.3125,8.212501,-20.212502,,,,,,,,,,,,,,,
1736666363498,,,,-1.44375,8.15625,-20.15625,,,,,,,,,,,,,,,
1736666363517,,,,-1.2,8.400001,-20.456251,,,,,,,,,,,,,,,
1736666363537,,,,-0.95625,8.400001,-20.75625,,,,,,,,,,,,,,,
1736666363558,,,,-0.84375006,8.700001,-20.75625,,,,,,,,,,,,,,,
1736666363578,,,,-0.65625,8.8125,-21.056252,,,,,,,,,,,,,,,
1736666363599,,,,-0.95625,8.8125,-20.75625,,,,,,,,,,,,,,,
1736666363618,,,,-1.25625,9.0,-20.643751,,,,,,,,,,,,,,,
1736666363639,,,,-1.5562501,8.8125,-20.94375,,,,,,,,,,,,,,,
1736666363659,,,,-1.7437501,8.94375,-21.112501,,,,,,,,,,,,,,,
1736666363678,,,,-1.5,9.0,-21.4125,,,,,,,,,,,,,,,
1736666363698,,,,-1.5562501,8.8125,-21.6,,,,,,,,,,,,,,,
1736666363718,,,,-1.8000001,8.75625,-21.65625,,,,,,,,,,,,,,,
1736666363738,,,,-1.9125,8.700001,-21.243752,,,,,,,,,,,,,,,
1736666363758,,,,-2.34375,8.8125,-21.35625,,,,,,,,,,,,,,,
1736666363778,,,,-2.2125,9.056251,-21.6,,,,,,,,,,,,,,,
1736666363798,,,,-2.04375,9.4125,-21.4125,,,,,,,,,,,,,,,
1736666363819,,,,-2.04375,9.84375,-21.65625,,,,,,,,,,,,,,,
1736666363838,,,,-2.1000001,9.6,-21.84375,,,,,,,,,,,,,,,
1736666363859,,,,-2.5125,9.356251,-21.900002,,,,,,,,,,,,,,,
1736666363879,,,,-2.5125,9.3,-22.25625,,,,,,,,,,,,,,,
1736666363898,,,,-2.7,9.056251,-22.25625,,,,,,,,,,,,,,,
1736666363919,,,,-2.34375,9.1125,-22.556252,,,,,,,,,,,,,,,
1736666363938,,,,-1.5562501,9.4125,-22.556252,,,,,,,,,,,,,,,
1736666363959,,,,-1.85625,9.243751,-22.44375,,,,,,,,,,,,,,,
1736666363978,,,,-1.8000001,9.3,-22.9125,,,,,,,,,,,,,,,
1736666363998,,,,-2.1000001,9.3,-22.612501,,,,,,,,,,,,,,,
1736666364019,,,,-2.15625,9.356251,-22.612501,,,,,,,,,,,,,,,
1736666364038,,,,-2.04375,9.543751,-22.800001,,,,,,,,,,,,,,,
1736666364058,,,,-1.9125,9.543751,-22.743752,,,,,,,,,,,,,,,
1736666364078,,,,-1.85625,9.356251,-22.743752,,,,,,,,,,,,,,,
1736666364098,,,,-2.2125,9.356251,-22.85625,,,,,,,,,,,,,,,
1736666364119,,,,-2.34375,9.243751,-22.9125,,,,,,,,,,,,,,,
1736666364138,,,,-2.4562502,9.0,-23.1,,,,,,,,,,,,,,,
1736666364158,,,,-2.7,9.243751,-23.34375,,,,,,,,,,,,,,,
1736666364178,,,,-2.8125,9.1125,-23.456251,,,,,,,,,,,,,,,
1736666364198,,,,-2.9437501,9.056251,-24.0,,,,,,,,,,,,,,,
1736666364218,,,,-3.1125002,9.3,-24.4125,,,,,,,,,,,,,,,
1736666364238,,,,-2.9437501,9.6,-24.900002,,,,,,,,,,,,,,,
1736666364258,,,,-2.7562501,9.356251,-25.44375,,,,,,,,,,,,,,,
1736666364278,,,,-2.7562501,9.4125,-25.500002,,,,,,,,,,,,,,,
1736666364298,,,,-2.8125,9.1125,-25.2,,,,,,,,,,,,,,,
1736666364318,,,,-3.05625,8.512501,-25.44375,,,,,,,,,,,,,,,
1736666364338,,,,-2.8125,8.400001,-25.25625,,,,,,,,,,,,,,,
1736666364358,,,,-2.9437501,8.34375,-24.956251,,,,,,,,,,,,,,,
1736666364378,,,,-2.8125,8.34375,-24.900002,,,,,,,,,,,,,,,
1736666364399,,,,-2.9437501,8.64375,-24.900002,,,,,,,,,,,,,,,
1736666364419,,,,-3.7125,8.700001,-25.2,,,,,,,,,,,,,,,
1736666364439,,,,-4.14375,8.512501,-25.312502,,,,,,,,,,,,,,,
1736666364458,,,,-4.0125003,8.45625,-25.612501,,,,,,,,,,,,,,,
1736666364478,,,,-4.2000003,8.043751,-25.500002,,,,,,,,,,,,,,,
1736666364498,,,,-3.8437502,7.74375,-25.0125,,,,,,,,,,,,,,,
1736666364519,,,,-3.6000001,7.74375,-25.2,,,,,,,,,,,,,,,
1736666364538,,,,-3.7125,7.6125,-25.25625,,,,,,,,,,,,,,,
1736666364558,,,,-4.14375,7.2000003,-25.2,,,,,,,,,,,,,,,
1736666364579,,,,-4.3125,7.3125005,-25.612501,,,,,,,,,,,,,,,
1736666364598,,,,-4.6125,7.2562504,-26.04375,,,,,,,,,,,,,,,
1736666364619,,,,-4.8562503,7.2562504,-26.156252,,,,,,,,,,,,,,,
1736666364638,,,,-5.0437503,7.5000005,-26.212502,,,,,,,,,,,,,,,
1736666364659,,,,-5.4,7.14375,-26.1,,,,,,,,,,,,,,,
1736666364679,,,,-5.45625,6.9,-25.743752,,,,,,,,,,,,,,,
1736666364698,,,,-5.64375,6.6562505,-25.556252,,,,,,,,,,,,,,,
1736666364718,,,,-5.7562504,6.5437503,-25.556252,,,,,,,,,,,,,,,
1736666364738,,,,-5.45625,6.7125,-25.312502,,,,,,,,,,,,,,,
1736666364758,,,,-5.7562504,6.5437503,-25.0125,,,,,,,,,,,,,,,
1736666364779,,,,-6.05625,6.3562503,-24.712502,,,,,,,,,,,,,,,
1736666364799,,,,-5.8125,6.3562503,-24.6,,,,,,,,,,,,,,,
1736666364818,,,,-6.05625,6.1125,-24.900002,,,,,,,,,,,,,,,
1736666364838,,,,-6.3,6.24375,-24.956251,,,,,,,,,,,,,,,
1736666364858,,,,-6.9,5.9437504,-25.143751,,,,,,,,,,,,,,,
1736666364879,,,,-7.5000005,6.05625,-25.0125,,,,,,,,,,,,,,,
1736666364898,,,,-8.043751,5.9437504,-24.4125,,,,,,,,,,,,,,,
1736666364918,,,,-8.212501,5.9437504,-24.300001,,,,,,,,,,,,,,,
1736666364938,,,,-8.1,5.8125,-24.0,,,,,,,,,,,,,,,
1736666364959,,,,-8.512501,5.5125003,-23.7,,,,,,,,,,,,,,,
1736666364978,,,,-8.8125,5.64375,-24.0,,,,,,,,,,,,,,,
1736666364999,,,,-9.056251,5.34375,-24.112501,,,,,,,,,,,,,,,
1736666365019,,,,-9.3,5.7000003,-23.94375,,,,,,,,,,,,,,,
1736666365039,,,,-9.0,5.64375,-24.112501,,,,,,,,,,,,,,,
1736666365059,,,,-9.3,5.4,-24.112501,,,,,,,,,,,,,,,
1736666365079,,,,-9.6,5.5125003,-23.94375,,,,,,,,,,,,,,,
1736666365098,,,,-9.543751,5.45625,-24.300001,,,,,,,,,,,,,,,
1736666365118,,,,-9.65625,5.34375,-24.4125,,,,,,,,,,,,,,,
1736666365139,,,,-9.4125,5.64375,-24.112501,,,,,,,,,,,,,,,
1736666365159,,,,-9.3,5.7562504,-24.0,,,,,,,,,,,,,,,
1736666365178,,,,-9.65625,5.64375,-23.8125,,,,,,,,,,,,,,,
1736666365199,,,,-10.14375,5.9437504,-23.643751,,,,,,,,,,,,,,,
1736666365218,,,,-10.200001,5.7562504,-23.7,,,,,,,,,,,,,,,
1736666365238,,,,-10.5,5.5125003,-24.056252,,,,,,,,,,,,,,,
1736666365258,,,,-10.44375,5.64375,-24.056252,,,,,,,,,,,,,,,
1736666365278,,,,-10.200001,5.64375,-24.0,,,,,,,,,,,,,,,
1736666365298,,,,-10.44375,5.7000003,-24.112501,,,,,,,,,,,,,,,
1736666365319,,,,-10.44375,5.8125,-23.7,,,,,,,,,,,,,,,
1736666365338,,,,-10.8,5.7000003,-23.400002,,,,,,,,,,,,,,,
1736666365358,,,,-10.8,5.64375,-23.643751,,,,,,,,,,,,,,,
1736666365379,,,,-10.9125,5.5125003,-23.400002,,,,,,,,,,,,,,,
1736666365398,,,,-11.043751,5.34375,-23.456251,,,,,,,,,,,,,,,
1736666365418,,,,-10.743751,5.4,-23.400002,,,,,,,,,,,,,,,
1736666365438,,,,-10.743751,5.2125,-23.15625,,,,,,,,,,,,,,,
1736666365459,,,,-10.8,5.4,-23.1,,,,,,,,,,,,,,,
1736666365478,,,,-10.743751,5.34375,-23.15625,,,,,,,,,,,,,,,
1736666365498,,,,-10.743751,5.2125,-23.212502,,,,,,,,,,,,,,,
1736666365517,,,,-10.743751,5.2125,-23.04375,,,,,,,,,,,,,,,
1736666365538,,,,-10.556251,5.0437503,-22.9125,,,,,,,,,,,,,,,
1736666365557,,,,-10.743751,4.9125004,-23.04375,,,,,,,,,,,,,,,
1736666365577,,,,-11.15625,4.9125004,-22.9125,,,,,,,,,,,,,,,
1736666365598,,,,-10.9125,5.0437503,-23.212502,,,,,,,,,,,,,,,
1736666365617,,,,-11.1,4.9125004,-23.400002,,,,,,,,,,,,,,,
1736666365637,,,,-11.043751,5.2125,-23.34375,,,,,,,,,,,,,,,
1736666365657,,,,-11.043751,5.34375,-23.643751,,,,,,,,,,,,,,,
1736666365677,,,,-11.45625,5.1000004,-23.456251,,,,,,,,,,,,,,,
1736666365698,,,,-11.15625,5.34375,-23.400002,,,,,,,,,,,,,,,
1736666365717,,,,-10.743751,5.34375,-23.04375,,,,,,,,,,,,,,,
1736666365738,,,,-10.25625,5.45625,-23.1,,,,,,,,,,,,,,,
1736666365757,,,,-9.900001,5.7000003,-23.15625,,,,,,,,,,,,,,,
1736666365777,,,,-9.712501,5.7562504,-23.1,,,,,,,,,,,,,,,
1736666363055,,,,,,,-0.712912,1.664021,9.638098,,,,,,,,,,,,
1736666363065,,,,,,,-0.705091,1.676131,9.636577,,,,,,,,,,,,
1736666363075,,,,,,,-0.696379,1.716697,9.630069,,,,,,,,,,,,
1736666363085,,,,,,,-0.682186,1.736589,9.627522,,,,,,,,,,,,
1736666363095,,,,,,,-0.672187,1.772068,9.621761,,,,,,,,,,,,
1736666363105,,,,,,,-0.66713,1.789956,9.618802,,,,,,,,,,,,
1736666363115,,,,,,,-0.648277,1.796963,9.618784,,,,,,,,,,,,
1736666363125,,,,,,,-0.640943,1.801191,9.618481,,,,,,,,,,,,
1736666363135,,,,,,,-0.628627,1.776707,9.623844,,,,,,,,,,,,
1736666363146,,,,,,,-0.620088,1.764524,9.626638,,,,,,,,,,,,
1736666363156,,,,,,,-0.621652,1.718766,9.634814,,,,,,,,,,,,
1736666363166,,,,,,,-0.615281,1.690343,9.64025,,,,,,,,,,,,
1736666363176,,,,,,,-0.611382,1.655793,9.646495,,,,,,,,,,,,
1736666363185,,,,,,,-0.606501,1.628257,9.65149,,,,,,,,,,,,
1736666363195,,,,,,,-0.602914,1.617713,9.653491,,,,,,,,,,,,
1736666363205,,,,,,,-0.600949,1.605287,9.655688,,,,,,,,,,,,
1736666363215,,,,,,,-0.592708,1.607643,9.655804,,,,,,,,,,,,
1736666363225,,,,,,,-0.587763,1.611917,9.655394,,,,,,,,,,,,
1736666363236,,,,,,,-0.576825,1.616768,9.655242,,,,,,,,,,,,
1736666363246,,,,,,,-0.566352,1.620755,9.655193,,,,,,,,,,,,
1736666363256,,,,,,,-0.561858,1.619183,9.655721,,,,,,,,,,,,
1736666363266,,,,,,,-0.557915,1.616217,9.656446,,,,,,,,,,,,
1736666363276,,,,,,,-0.558842,1.608715,9.657645,,,,,,,,,,,,
1736666363286,,,,,,,-0.560826,1.600106,9.65896,,,,,,,,,,,,
1736666363296,,,,,,,-0.561681,1.594698,9.659804,,,,,,,,,,,,
1736666363306,,,,,,,-0.561978,1.588375,9.66083,,,,,,,,,,,,
1736666363316,,,,,,,-0.567609,1.580761,9.661749,,,,,,,,,,,,
1736666363326,,,,,,,-0.567043,1.575063,9.662713,,,,,,,,,,,,
1736666363336,,,,,,,-0.567037,1.570577,9.663444,,,,,,,,,,,,
1736666363346,,,,,,,-0.570033,1.567216,9.663812,,,,,,,,,,,,
1736666363356,,,,,,,-0.577419,1.561546,9.66429,,,,,,,,,,,,
1736666363367,,,,,,,-0.580033,1.55876,9.664585,,,,,,,,,,,,
1736666363377,,,,,,,-0.572521,1.560284,9.664787,,,,,,,,,,,,
1736666363387,,,,,,,-0.572923,1.556016,9.665452,,,,,,,,,,,,
1736666363397,,,,,,,-0.56728,1.551056,9.666581,,,,,,,,,,,,
1736666363406,,,,,,,-0.556843,1.550171,9.667329,,,,,,,,,,,,
1736666363416,,,,,,,-0.547017,1.544177,9.66885,,,,,,,,,,,,
1736666363427,,,,,,,-0.541686,1.537521,9.67021,,,,,,,,,,,,
1736666363437,,,,,,,-0.540695,1.534067,9.670815,,,,,,,,,,,,
1736666363446,,,,,,,-0.537901,1.530401,9.671553,,,,,,,,,,,,
1736666363456,,,,,,,-0.541219,1.527415,9.671838,,,,,,,,,,,,
1736666363467,,,,,,,-0.540871,1.526106,9.672065,,,,,,,,,,,,
1736666363477,,,,,,,-0.536693,1.530024,9.671678,,,,,,,,,,,,
1736666363487,,,,,,,-0.535028,1.527251,9.672209,,,,,,,,,,,,
1736666363497,,,,,,,-0.530909,1.534898,9.671224,,,,,,,,,,,,
1736666363507,,,,,,,-0.527627,1.540705,9.670481,,,,,,,,,,,,
1736666363517,,,,,,,-0.528093,1.543804,9.669961,,,,,,,,,,,,
1736666363528,,,,,,,-0.530676,1.547525,9.669226,,,,,,,,,,,,
1736666363538,,,,,,,-0.531072,1.539256,9.670523,,,,,,,,,,,,
1736666363547,,,,,,,-0.531861,1.537646,9.670736,,,,,,,,,,,,
1736666363557,,,,,,,-0.532502,1.526486,9.672469,,,,,,,,,,,,
1736666363567,,,,,,,-0.531244,1.518213,9.67384,,,,,,,,,,,,
1736666363577,,,,,,,-0.527774,1.509854,9.675338,,,,,,,,,,,,
1736666363587,,,,,,,-0.527968,1.503948,9.676248,,,,,,,,,,,,
1736666363597,,,,,,,-0.525736,1.496845,9.677471,,,,,,,,,,,,
1736666363607,,,,,,,-0.525141,1.490404,9.678497,,,,,,,,,,,,
1736666363617,,,,,,,-0.525008,1.482341,9.679742,,,,,,,,,,,,
1736666363628,,,,,,,-0.523968,1.47767,9.680513,,,,,,,,,,,,
1736666363638,,,,,,,-0.509218,1.466164,9.683049,,,,,,,,,,,,
1736666363648,,,,,,,-0.499883,1.455727,9.685109,,,,,,,,,,,,
1736666363658,,,,,,,-0.47479,1.445206,9.687947,,,,,,,,,,,,
1736666363667,,,,,,,-0.452811,1.432405,9.6909,,,,,,,,,,,,
1736666363677,,,,,,,-0.439085,1.428805,9.692062,,,,,,,,,,,,
1736666363687,,,,,,,-0.421856,1.420015,9.694118,,,,,,,,,,,,
1736666363697,,,,,,,-0.419012,1.418883,9.694408,,,,,,,,,,,,
1736666363708,,,,,,,-0.417022,1.41594,9.694925,,,,,,,,,,,,
1736666363718,,,,,,,-0.411063,1.408624,9.696246,,,,,,,,,,,,
1736666363728,,,,,,,-0.408248,1.408747,9.696347,,,,,,,,,,,,
1736666363738,,,,,,,-0.405374,1.39047,9.699105,,,,,,,,,,,,
1736666363748,,,,,,,-0.403177,1.379818,9.700718,,,,,,,,,,,,
1736666363758,,,,,,,-0.405528,1.370639,9.701921,,,,,,,,,,,,
1736666363769,,,,,,,-0.404322,1.359281,9.703569,,,,,,,,,,,,
1736666363779,,,,,,,-0.402008,1.361244,9.703391,,,,,,,,,,,,
1736666363789,,,,,,,-0.40075,1.361719,9.703376,,,,,,,,,,,,
1736666363799,,,,,,,-0.398743,1.360423,9.703641,,,,,,,,,,,,
1736666363808,,,,,,,-0.399708,1.362788,9.703268,,,,,,,,,,,,
1736666363818,,,,,,,-0.39722,1.357348,9.704134,,,,,,,,,,,,
1736666363828,,,,,,,-0.396322,1.351196,9.705029,,,,,,,,,,,,
1736666363838,,,,,,,-0.396019,1.349273,9.705309,,,,,,,,,,,,
1736666363848,,,,,,,-0.392226,1.34656,9.705839,,,,,,,,,,,,
1736666363858,,,,,,,-0.397486,1.350736,9.705045,,,,,,,,,,,,
1736666363869,,,,,,,-0.400684,1.351024,9.704874,,,,,,,,,,,,
1736666363879,,,,,,,-0.404192,1.353544,9.704378,,,,,,,,,,,,
1736666363889,,,,,,,-0.405388,1.356731,9.703881,,,,,,,,,,,,
1736666363899,,,,,,,-0.409488,1.356347,9.703763,,,,,,,,,,,,
1736666363908,,,,,,,-0.4144,1.355984,9.703606,,,,,,,,,,,,
1736666363918,,,,,,,-0.420167,1.351004,9.704053,,,,,,,,,,,,
1736666363929,,,,,,,-0.421745,1.349273,9.704225,,,,,,,,,,,,
1736666363940,,,,,,,-0.419242,1.346336,9.704741,,,,,,,,,,,,
1736666363949,,,,,,,-0.42063,1.344492,9.704936,,,,,,,,,,,,
1736666363959,,,,,,,-0.423776,1.350144,9.704015,,,,,,,,,,,,
1736666363970,,,,,,,-0.425651,1.354191,9.703368,,,,,,,,,,,,
1736666363980,,,,,,,-0.432984,1.359827,9.702257,,,,,,,,,,,,
1736666363990,,,,,,,-0.440902,1.366309,9.700989,,,,,,,,,,,,
1736666364000,,,,,,,-0.445685,1.360753,9.701551,,,,,,,,,,,,
1736666364010,,,,,,,-0.450381,1.361145,9.70128,,,,,,,,,,,,
1736666364020,,,,,,,-0.44235,1.344497,9.703971,,,,,,,,,,,,
1736666364029,,,,,,,-0.436597,1.33298,9.705819,,,,,,,,,,,,
1736666364039,,,,,,,-0.423919,1.325934,9.707346,,,,,,,,,,,,
1736666364050,,,,,,,-0.413764,1.314171,9.709384,,,,,,,,,,,,
1736666364060,,,,,,,-0.41477,1.320828,9.708438,,,,,,,,,,,,
1736666364069,,,,,,,-0.410272,1.320636,9.708655,,,,,,,,,,,,
1736666364079,,,,,,,-0.419054,1.332094,9.706715,,,,,,,,,,,,
1736666364090,,,,,,,-0.427013,1.341988,9.705005,,,,,,,,,,,,
1736666364100,,,,,,,-0.425972,1.348941,9.704085,,,,,,,,,,,,
1736666364109,,,,,,,-0.429751,1.355006,9.703074,,,,,,,,,,,,
1736666364120,,,,,,,-0.430892,1.360363,9.702274,,,,,,,,,,,,
1736666364129,,,,,,,-0.435387,1.364817,9.701447,,,,,,,,,,,,
1736666364139,,,,,,,-0.442397,1.362168,9.701504,,,,,,,,,,,,
1736666364149,,,,,,,-0.443508,1.364612,9.701109,,,,,,,,,,,,
1736666364159,,,,,,,-0.435763,1.348578,9.703702,,,,,,,,,,,,
1736666364171,,,,,,,-0.433243,1.340881,9.704882,,,,,,,,,,,,
1736666364181,,,,,,,-0.430214,1.325053,9.70719,,,,,,,,,,,,
1736666364190,,,,,,,-0.42422,1.310908,9.709373,,,,,,,,,,,,
1736666364200,,,,,,,-0.428384,1.307734,9.709619,,,,,,,,,,,,
1736666364211,,,,,,,-0.426413,1.301018,9.710608,,,,,,,,,,,,
1736666364221,,,,,,,-0.420958,1.306716,9.710079,,,,,,,,,,,,
1736666364230,,,,,,,-0.421114,1.309688,9.709674,,,,,,,,,,,,
1736666364240,,,,,,,-0.417383,1.316598,9.7089,,,,,,,,,,,,
1736666364250,,,,,,,-0.413341,1.324059,9.70806,,,,,,,,,,,,
1736666364260,,,,,,,-0.418623,1.339403,9.705729,,,,,,,,,,,,
1736666364270,,,,,,,-0.422192,1.349112,9.704227,,,,,,,,,,,,
1736666364280,,,,,,,-0.417101,1.358244,9.703174,,,,,,,,,,,,
1736666364291,,,,,,,-0.417052,1.36844,9.701742,,,,,,,,,,,,
1736666364301,,,,,,,-0.403991,1.363819,9.702947,,,,,,,,,,,,
1736666364310,,,,,,,-0.397742,1.362309,9.703417,,,,,,,,,,,,
1736666364320,,,,,,,-0.39271,1.346987,9.70576,,,,,,,,,,,,
1736666364331,,,,,,,-0.384404,1.335608,9.707664,,,,,,,,,,,,
1736666364341,,,,,,,-0.382216,1.315532,9.710493,,,,,,,,,,,,
1736666364351,,,,,,,-0.38072,1.299085,9.712766,,,,,,,,,,,,
1736666364361,,,,,,,-0.378597,1.28232,9.715076,,,,,,,,,,,,
1736666364370,,,,,,,-0.374585,1.269563,9.716908,,,,,,,,,,,,
1736666364380,,,,,,,-0.375399,1.26385,9.71762,,,,,,,,,,,,
1736666364390,,,,,,,-0.374578,1.256584,9.718595,,,,,,,,,,,,
1736666364402,,,,,,,-0.381874,1.259081,9.717987,,,,,,,,,,,,
1736666364412,,,,,,,-0.387384,1.262765,9.717291,,,,,,,,,,,,
1736666364422,,,,,,,-0.38905,1.263428,9.717138,,,,,,,,,,,,
1736666364431,,,,,,,-0.388773,1.268405,9.7165,,,,,,,,,,,,
1736666364441,,,,,,,-0.383829,1.275424,9.715778,,,,,,,,,,,,
1736666364451,,,,,,,-0.377986,1.275563,9.715988,,,,,,,,,,,,
1736666364461,,,,,,,-0.376621,1.295713,9.713375,,,,,,,,,,,,
1736666364471,,,,,,,-0.375107,1.305626,9.712107,,,,,,,,,,,,
1736666364481,,,,,,,-0.376956,1.321261,9.709922,,,,,,,,,,,,
1736666364492,,,,,,,-0.380344,1.33375,9.708081,,,,,,,,,,,,
1736666364502,,,,,,,-0.383915,1.331881,9.708196,,,,,,,,,,,,
1736666364511,,,,,,,-0.389392,1.334642,9.707599,,,,,,,,,,,,
1736666364521,,,,,,,-0.394374,1.324882,9.708736,,,,,,,,,,,,
1736666364531,,,,,,,-0.393243,1.320162,9.709424,,,,,,,,,,,,
1736666364541,,,,,,,-0.391052,1.317746,9.709841,,,,,,,,,,,,
1736666364551,,,,,,,-0.393642,1.315348,9.710062,,,,,,,,,,,,
1736666364561,,,,,,,-0.397025,1.311838,9.710398,,,,,,,,,,,,
1736666364571,,,,,,,-0.399481,1.312279,9.710239,,,,,,,,,,,,
1736666364581,,,,,,,-0.411246,1.302249,9.711096,,,,,,,,,,,,
1736666364591,,,,,,,-0.419956,1.296485,9.711495,,,,,,,,,,,,
1736666364601,,,,,,,-0.410545,1.296515,9.711894,,,,,,,,,,,,
1736666364611,,,,,,,-0.400743,1.295017,9.712503,,,,,,,,,,,,
1736666364621,,,,,,,-0.398205,1.294525,9.712673,,,,,,,,,,,,
1736666364631,,,,,,,-0.392818,1.29273,9.713132,,,,,,,,,,,,
1736666364642,,,,,,,-0.39622,1.296211,9.71253,,,,,,,,,,,,
1736666364652,,,,,,,-0.397705,1.294617,9.712682,,,,,,,,,,,,
1736666364662,,,,,,,-0.399229,1.302585,9.711553,,,,,,,,,,,,
1736666364672,,,,,,,-0.397027,1.311034,9.710506,,,,,,,,,,,,
1736666364682,,,,,,,-0.395087,1.315753,9.709947,,,,,,,,,,,,
1736666364692,,,,,,,-0.398157,1.319508,9.709312,,,,,,,,,,,,
1736666364702,,,,,,,-0.395802,1.324592,9.708716,,,,,,,,,,,,
1736666364713,,,,,,,-0.394674,1.328013,9.708295,,,,,,,,,,,,
1736666364723,,,,,,,-0.398734,1.326971,9.708272,,,,,,,,,,,,
1736666364732,,,,,,,-0.401801,1.326705,9.708182,,,,,,,,,,,,
1736666364742,,,,,,,-0.407116,1.324622,9.708244,,,,,,,,,,,,
1736666364753,,,,,,,-0.411283,1.322223,9.708395,,,,,,,,,,,,
1736666364763,,,,,,,-0.409361,1.317341,9.709141,,,,,,,,,,,,
1736666364772,,,,,,,-0.409705,1.316361,9.709259,,,,,,,,,,,,
1736666364782,,,,,,,-0.405097,1.314602,9.709692,,,,,,,,,,,,
1736666364792,,,,,,,-0.400343,1.312699,9.710146,,,,,,,,,,,,
1736666364802,,,,,,,-0.398128,1.313925,9.710071,,,,,,,,,,,,
1736666364813,,,,,,,-0.397175,1.314223,9.71007,,,,,,,,,,,,
1736666364823,,,,,,,-0.396962,1.310217,9.71062,,,,,,,,,,,,
1736666364833,,,,,,,-0.393274,1.307897,9.711083,,,,,,,,,,,,
1736666364843,,,,,,,-0.382991,1.304912,9.711896,,,,,,,,,,,,
1736666364852,,,,,,,-0.380606,1.299587,9.712704,,,,,,,,,,,,
1736666364862,,,,,,,-0.374666,1.299703,9.712918,,,,,,,,,,,,
1736666364873,,,,,,,-0.367169,1.298936,9.713307,,,,,,,,,,,,
1736666364883,,,,,,,-0.368237,1.303262,9.712687,,,,,,,,,,,,
1736666364894,,,,,,,-0.369131,1.307503,9.712082,,,,,,,,,,,,
1736666364904,,,,,,,-0.369221,1.306885,9.712164,,,,,,,,,,,,
1736666364913,,,,,,,-0.370324,1.309504,9.711768,,,,,,,,,,,,
1736666364923,,,,,,,-0.367153,1.311875,9.71157,,,,,,,,,,,,
1736666364933,,,,,,,-0.36241,1.3109,9.711878,,,,,,,,,,,,
1736666364943,,,,,,,-0.36042,1.314084,9.711522,,,,,,,,,,,,
1736666364953,,,,,,,-0.360314,1.316883,9.711146,,,,,,,,,,,,
1736666364963,,,,,,,-0.359974,1.317892,9.711022,,,,,,,,,,,,
1736666364973,,,,,,,-0.359481,1.320155,9.710733,,,,,,,,,,,,
1736666364983,,,,,,,-0.356984,1.318709,9.711022,,,,,,,,,,,,
1736666364993,,,,,,,-0.355254,1.318045,9.711177,,,,,,,,,,,,
1736666365003,,,,,,,-0.356509,1.316888,9.711287,,,,,,,,,,,,
1736666365013,,,,,,,-0.356022,1.315019,9.711558,,,,,,,,,,,,
1736666365023,,,,,,,-0.347999,1.326328,9.710311,,,,,,,,,,,,
1736666365033,,,,,,,-0.336422,1.335986,9.709394,,,,,,,,,,,,
1736666365043,,,,,,,-0.337532,1.346528,9.7079,,,,,,,,,,,,
1736666365054,,,,,,,-0.342535,1.352796,9.706853,,,,,,,,,,,,
1736666365063,,,,,,,-0.3399,1.356668,9.706405,,,,,,,,,,,,
1736666365074,,,,,,,-0.338604,1.361428,9.705785,,,,,,,,,,,,
1736666365084,,,,,,,-0.327542,1.368121,9.705222,,,,,,,,,,,,
1736666365093,,,,,,,-0.316413,1.375126,9.704601,,,,,,,,,,,,
1736666365105,,,,,,,-0.318006,1.381748,9.703609,,,,,,,,,,,,
1736666365114,,,,,,,-0.317065,1.385929,9.703044,,,,,,,,,,,,
1736666365124,,,,,,,-0.319021,1.395182,9.701653,,,,,,,,,,,,
1736666365134,,,,,,,-0.323343,1.399957,9.700823,,,,,,,,,,,,
1736666365144,,,,,,,-0.321228,1.407152,9.699851,,,,,,,,,,,,
1736666365154,,,,,,,-0.321578,1.412336,9.699086,,,,,,,,,,,,
1736666365164,,,,,,,-0.31885,1.412632,9.699134,,,,,,,,,,,,
1736666365174,,,,,,,-0.319182,1.413898,9.698939,,,,,,,,,,,,
1736666365184,,,,,,,-0.3127,1.415919,9.698854,,,,,,,,,,,,
1736666365195,,,,,,,-0.305815,1.417227,9.698883,,,,,,,,,,,,
1736666365205,,,,,,,-0.311928,1.414744,9.69905,,,,,,,,,,,,
1736666365215,,,,,,,-0.314162,1.413955,9.699093,,,,,,,,,,,,
1736666365225,,,,,,,-0.322269,1.411783,9.699143,,,,,,,,,,,,
1736666365234,,,,,,,-0.329192,1.408563,9.699379,,,,,,,,,,,,
1736666365244,,,,,,,-0.333096,1.408161,9.699306,,,,,,,,,,,,
1736666365254,,,,,,,-0.339304,1.409976,9.698827,,,,,,,,,,,,
1736666365264,,,,,,,-0.333097,1.40472,9.699804,,,,,,,,,,,,
1736666365274,,,,,,,-0.329487,1.402681,9.700223,,,,,,,,,,,,
1736666365284,,,,,,,-0.331238,1.394556,9.701335,,,,,,,,,,,,
1736666365294,,,,,,,-0.326949,1.388476,9.702352,,,,,,,,,,,,
1736666365304,,,,,,,-0.321185,1.385488,9.702971,,,,,,,,,,,,
1736666365314,,,,,,,-0.319932,1.382066,9.7035,,,,,,,,,,,,
1736666365324,,,,,,,-0.308025,1.387711,9.70308,,,,,,,,,,,,
1736666365336,,,,,,,-0.300322,1.389627,9.703048,,,,,,,,,,,,
1736666365345,,,,,,,-0.30332,1.396016,9.702038,,,,,,,,,,,,
1736666365355,,,,,,,-0.30214,1.400484,9.701429,,,,,,,,,,,,
1736666365365,,,,,,,-0.309618,1.402483,9.700906,,,,,,,,,,,,
1736666365375,,,,,,,-0.316842,1.405604,9.70022,,,,,,,,,,,,
1736666365385,,,,,,,-0.320426,1.410293,9.699423,,,,,,,,,,,,
1736666365395,,,,,,,-0.322789,1.411203,9.699212,,,,,,,,,,,,
1736666365405,,,,,,,-0.326807,1.414205,9.698639,,,,,,,,,,,,
1736666365415,,,,,,,-0.328711,1.418888,9.697891,,,,,,,,,,,,
1736666365425,,,,,,,-0.320284,1.43145,9.696327,,,,,,,,,,,,
1736666365435,,,,,,,-0.318733,1.436232,9.69567,,,,,,,,,,,,
1736666365445,,,,,,,-0.317694,1.437929,9.695453,,,,,,,,,,,,
1736666365455,,,,,,,-0.312181,1.446048,9.694426,,,,,,,,,,,,
1736666365465,,,,,,,-0.325654,1.439747,9.69492,,,,,,,,,,,,
1736666365475,,,,,,,-0.337589,1.433674,9.695411,,,,,,,,,,,,
1736666365485,,,,,,,-0.341959,1.429795,9.69583,,,,,,,,,,,,
1736666365495,,,,,,,-0.35319,1.424204,9.696251,,,,,,,,,,,,
1736666365505,,,,,,,-0.345397,1.418289,9.697399,,,,,,,,,,,,
1736666365515,,,,,,,-0.337671,1.413734,9.698336,,,,,,,,,,,,
1736666365525,,,,,,,-0.327029,1.407577,9.699595,,,,,,,,,,,,
1736666365536,,,,,,,-0.316702,1.40197,9.700751,,,,,,,,,,,,
1736666365546,,,,,,,-0.315935,1.398536,9.701271,,,,,,,,,,,,
1736666365555,,,,,,,-0.312351,1.393453,9.702119,,,,,,,,,,,,
1736666365565,,,,,,,-0.306747,1.39101,9.702648,,,,,,,,,,,,
1736666365576,,,,,,,-0.307796,1.390006,9.702759,,,,,,,,,,,,
1736666365586,,,,,,,-0.303116,1.389048,9.703044,,,,,,,,,,,,
1736666365596,,,,,,,-0.296788,1.388661,9.703295,,,,,,,,,,,,
1736666365606,,,,,,,-0.304415,1.392068,9.702569,,,,,,,,,,,,
1736666365617,,,,,,,-0.306323,1.392803,9.702404,,,,,,,,,,,,
1736666365627,,,,,,,-0.309311,1.395913,9.701863,,,,,,,,,,,,
1736666365636,,,,,,,-0.31622,1.396612,9.70154,,,,,,,,,,,,
1736666365647,,,,,,,-0.316277,1.403868,9.70049,,,,,,,,,,,,
1736666365656,,,,,,,-0.31428,1.405774,9.700278,,,,,,,,,,,,
1736666365666,,,,,,,-0.322794,1.4143,9.698761,,,,,,,,,,,,
1736666365676,,,,,,,-0.328948,1.421076,9.697563,,,,,,,,,,,,
1736666365686,,,,,,,-0.336199,1.419345,9.697567,,,,,,,,,,,,
1736666365696,,,,,,,-0.34615,1.423302,9.696638,,,,,,,,,,,,
1736666365706,,,,,,,-0.343189,1.411836,9.698418,,,,,,,,,,,,
1736666365716,,,,,,,-0.340654,1.406504,9.699284,,,,,,,,,,,,
1736666365726,,,,,,,-0.334173,1.395473,9.701101,,,,,,,,,,,,
1736666365736,,,,,,,-0.330879,1.385056,9.702706,,,,,,,,,,,,
1736666365746,,,,,,,-0.332946,1.378621,9.703554,,,,,,,,,,,,
1736666365756,,,,,,,-0.329577,1.370956,9.704754,,,,,,,,,,,,
1736666365766,,,,,,,-0.32914,1.363197,9.705863,,,,,,,,,,,,
1736666363065,,,,,,,,,,0.2597375,-0.0666875,0.0754875,,,,,,,,,
1736666363075,,,,,,,,,,0.2267375,-0.0741125,0.0510125,,,,,,,,,
1736666363085,,,,,,,,,,0.16293749,-0.0889625,0.0350625,,,,,,,,,
1736666363095,,,,,,,,,,0.076725,-0.10505,0.0350625,,,,,,,,,
1736666363105,,,,,,,,,,-0.0169125,-0.0985875,0.0424875,,,,,,,,,
1736666363115,,,,,,,,,,-0.1062875,-0.06875,0.0413875,,,,,,,,,
1736666363125,,,,,,,,,,-0.1819125,-0.0231,0.0350625,,,,,,,,,
1736666363135,,,,,,,,,,-0.2286625,0.019524999,0.0243375,,,,,,,,,
1736666363146,,,,,,,,,,-0.2479125,0.036575,0.01155,,,,,,,,,
1736666363156,,,,,,,,,,-0.2382875,0.02915,-1.375E-4,,,,,,,,,
1736666363166,,,,,,,,,,-0.20845,-6.875E-4,-0.0064625,,,,,,,,,
1736666363176,,,,,,,,,,-0.1648625,-0.028324999,-0.0086624995,,,,,,,,,
1736666363185,,,,,,,,,,-0.11055,-0.039049998,-0.0044,,,,,,,,,
1736666363195,,,,,,,,,,-0.064899996,-0.039049998,0.005225,,,,,,,,,
1736666363205,,,,,,,,,,-0.0265375,-0.0231,0.0169125,,,,,,,,,
1736666363215,,,,,,,,,,0.0044,-0.0103124995,0.0308,,,,,,,,,
1736666363225,,,,,,,,,,0.0224125,-0.00385,0.0402875,,,,,,,,,
1736666363236,,,,,,,,,,0.0309375,-0.013475,0.0391875,,,,,,,,,
1736666363246,,,,,,,,,,0.028875,-0.029424999,0.0339625,,,,,,,,,
1736666363256,,,,,,,,,,0.0127875,-0.014575,0.0243375,,,,,,,,,
1736666363267,,,,,,,,,,-0.0083875,0.001375,0.01375,,,,,,,,,
1736666363277,,,,,,,,,,-0.0328625,0.002475,0.0020625,,,,,,,,,
1736666363287,,,,,,,,,,-0.0510125,4.125E-4,-0.010725,,,,,,,,,
1736666363297,,,,,,,,,,-0.0606375,0.001375,-0.02035,,,,,,,,,
1736666363306,,,,,,,,,,-0.0638,-0.00385,-0.026675,,,,,,,,,
1736666363316,,,,,,,,,,-0.0595375,-0.022,-0.028875,,,,,,,,,
1736666363327,,,,,,,,,,-0.053075,-0.03795,-0.026675,,,,,,,,,
1736666363337,,,,,,,,,,-0.04675,-0.039049998,-0.0235125,,,,,,,,,
1736666363346,,,,,,,,,,-0.040425,-0.0347875,-0.01925,,,,,,,,,
1736666363356,,,,,,,,,,-0.039325,-0.030524999,-0.0160875,,,,,,,,,
1736666363367,,,,,,,,,,-0.047849998,-0.0240625,-0.0149875,,,,,,,,,
1736666363377,,,,,,,,,,-0.0499125,-0.030524999,-0.01925,,,,,,,,,
1736666363386,,,,,,,,,,-0.047849998,-0.0539,-0.01925,,,,,,,,,
1736666363396,,,,,,,,,,-0.0446875,-0.0570625,-0.02035,,,,,,,,,
1736666363406,,,,,,,,,,-0.045649998,-0.062425,-0.0257125,,,,,,,,,
1736666363416,,,,,,,,,,-0.0446875,-0.0763125,-0.0363,,,,,,,,,
1736666363427,,,,,,,,,,-0.040425,-0.0815375,-0.043725,,,,,,,,,
1736666363437,,,,,,,,,,-0.038225,-0.061325,-0.0394625,,,,,,,,,
1736666363446,,,,,,,,,,-0.039325,-0.044275,-0.029975,,,,,,,,,
1736666363456,,,,,,,,,,-0.040425,-0.060225,-0.0257125,,,,,,,,,
1736666363467,,,,,,,,,,-0.04675,-0.07205,-0.0246125,,,,,,,,,
1736666363477,,,,,,,,,,-0.0499125,-0.07095,-0.026675,,,,,,,,,
1736666363487,,,,,,,,,,-0.0510125,-0.0858,-0.0246125,,,,,,,,,
1736666363497,,,,,,,,,,-0.0521125,-0.0837375,-0.0160875,,,,,,,,,
1736666363507,,,,,,,,,,-0.0584375,-0.061325,-0.0053625,,,,,,,,,
1736666363517,,,,,,,,,,-0.064899996,-0.0422125,0.005225,,,,,,,,,
1736666363527,,,,,,,,,,-0.072325,-0.029424999,0.01375,,,,,,,,,
1736666363537,,,,,,,,,,-0.0691625,-0.0231,0.01265,,,,,,,,,
1736666363547,,,,,,,,,,-0.064899996,-0.022,0.01155,,,,,,,,,
1736666363557,,,,,,,,,,-0.0606375,-0.0262625,0.01265,,,,,,,,,
1736666363567,,,,,,,,,,-0.054175,-0.03795,0.0169125,,,,,,,,,
1736666363577,,,,,,,,,,-0.0446875,-0.0507375,0.0158125,,,,,,,,,
1736666363587,,,,,,,,,,-0.0339625,-0.0411125,0.01375,,,,,,,,,
1736666363597,,,,,,,,,,-0.0254375,-0.027224999,0.0158125,,,,,,,,,
1736666363607,,,,,,,,,,-0.021175,-0.0177375,0.0243375,,,,,,,,,
1736666363617,,,,,,,,,,-0.0191125,-0.00495,0.036025,,,,,,,,,
1736666363628,,,,,,,,,,-0.0265375,0.002475,0.0424875,,,,,,,,,
1736666363638,,,,,,,,,,-0.0297,-0.022,0.0339625,,,,,,,,,
1736666363647,,,,,,,,,,-0.0308,-0.0804375,0.01375,,,,,,,,,
1736666363657,,,,,,,,,,-0.039325,-0.1071125,-0.0075625,,,,,,,,,
1736666363668,,,,,,,,,,-0.04895,-0.0974875,-0.026675,,,,,,,,,
1736666363678,,,,,,,,,,-0.0573375,-0.0900625,-0.0383625,,,,,,,,,
1736666363688,,,,,,,,,,-0.0669625,-0.077275,-0.0363,,,,,,,,,
1736666363698,,,,,,,,,,-0.07975,-0.0539,-0.0235125,,,,,,,,,
1736666363708,,,,,,,,,,-0.0829125,-0.030524999,-0.0138875,,,,,,,,,
1736666363718,,,,,,,,,,-0.0776875,-0.0209,-0.0086624995,,,,,,,,,
1736666363728,,,,,,,,,,-0.0658625,-0.014575,-0.009625,,,,,,,,,
1736666363738,,,,,,,,,,-0.0532125,-0.011275,-0.0171875,,,,,,,,,
1736666363748,,,,,,,,,,-0.0413875,0.002475,-0.0235125,,,,,,,,,
1736666363758,,,,,,,,,,-0.0350625,-6.875E-4,-0.0257125,,,,,,,,,
1736666363768,,,,,,,,,,-0.0276375,-0.012375,-0.02035,,,,,,,,,
1736666363778,,,,,,,,,,-0.0202125,-0.0231,-0.0138875,,,,,,,,,
1736666363789,,,,,,,,,,-0.0116875,-0.0240625,-0.010725,,,,,,,,,
1736666363799,,,,,,,,,,-0.0083875,-0.0177375,-0.009625,,,,,,,,,
1736666363808,,,,,,,,,,-0.01265,-0.0017875,-0.0086624995,,,,,,,,,
1736666363818,,,,,,,,,,-0.01485,0.0056375,-0.0160875,,,,,,,,,
1736666363829,,,,,,,,,,-0.01375,-0.00605,-0.0246125,,,,,,,,,
1736666363839,,,,,,,,,,-0.01485,-0.00275,-0.026675,,,,,,,,,
1736666363848,,,,,,,,,,-0.01485,0.0056375,-0.0235125,,,,,,,,,
1736666363858,,,,,,,,,,-0.01375,0.0089375,-0.01925,,,,,,,,,
1736666363869,,,,,,,,,,-0.01375,0.0121,-0.012925,,,,,,,,,
1736666363879,,,,,,,,,,-0.01595,0.004675,-0.010725,,,,,,,,,
1736666363889,,,,,,,,,,-0.0202125,-0.0081124995,-0.011825,,,,,,,,,
1736666363899,,,,,,,,,,-0.0297,4.125E-4,-0.012925,,,,,,,,,
1736666363908,,,,,,,,,,-0.039325,0.014162499,-0.0149875,,,,,,,,,
1736666363918,,,,,,,,,,-0.039325,0.0067375,-0.0160875,,,,,,,,,
1736666363929,,,,,,,,,,-0.0339625,-0.012375,-0.0171875,,,,,,,,,
1736666363940,,,,,,,,,,-0.0254375,-0.0251625,-0.0171875,,,,,,,,,
1736666363949,,,,,,,,,,-0.01595,-0.029424999,-0.0149875,,,,,,,,,
1736666363959,,,,,,,,,,-0.007425,-0.0177375,-0.0086624995,,,,,,,,,
1736666363970,,,,,,,,,,-0.006325,0.004675,-1.375E-4,,,,,,,,,
1736666363980,,,,,,,,,,-0.005225,0.0312125,0.01375,,,,,,,,,
1736666363990,,,,,,,,,,-0.007425,0.051425,0.020075,,,,,,,,,
1736666364000,,,,,,,,,,-0.0105875,0.0462,0.0254375,,,,,,,,,
1736666364009,,,,,,,,,,-0.01265,0.021724999,0.0232375,,,,,,,,,
1736666364019,,,,,,,,,,-0.0180125,-0.0070125,0.01155,,,,,,,,,
1736666364029,,,,,,,,,,-0.0191125,-0.03575,-0.0086624995,,,,,,,,,
1736666364039,,,,,,,,,,-0.0169125,-0.0433125,-0.029975,,,,,,,,,
1736666364049,,,,,,,,,,-0.0105875,-0.0347875,-0.0394625,,,,,,,,,
1736666364059,,,,,,,,,,-0.0031625,-0.027224999,-0.0374,,,,,,,,,
1736666364070,,,,,,,,,,0.0022,-0.0262625,-0.0224125,,,,,,,,,
1736666364080,,,,,,,,,,0.0022,-0.028324999,-0.0044,,,,,,,,,
1736666364089,,,,,,,,,,-9.625E-4,-0.030524999,0.0105875,,,,,,,,,
1736666364099,,,,,,,,,,-0.005225,-0.022,0.01375,,,,,,,,,
1736666364110,,,,,,,,,,-0.0094875,-0.0081124995,0.01155,,,,,,,,,
1736666364120,,,,,,,,,,-0.0169125,0.0163625,0.0105875,,,,,,,,,
1736666364130,,,,,,,,,,-0.0254375,0.0462,0.0158125,,,,,,,,,
1736666364140,,,,,,,,,,-0.0319,0.0504625,0.0265375,,,,,,,,,
1736666364149,,,,,,,,,,-0.038225,0.02585,0.0339625,,,,,,,,,
1736666364159,,,,,,,,,,-0.0413875,-0.00275,0.0286,,,,,,,,,
1736666364170,,,,,,,,,,-0.040425,-0.0103124995,0.01155,,,,,,,,,
1736666364180,,,,,,,,,,-0.037125,-0.00275,-0.0053625,,,,,,,,,
1736666364190,,,,,,,,,,-0.0319,-0.00495,-0.012925,,,,,,,,,
1736666364200,,,,,,,,,,-0.023375,-0.0262625,-0.0138875,,,,,,,,,
1736666364210,,,,,,,,,,-0.0180125,-0.047575,-0.0064625,,,,,,,,,
1736666364220,,,,,,,,,,-0.01265,-0.0570625,9.625E-4,,,,,,,,,
1736666364231,,,,,,,,,,-0.005225,-0.055,-0.0012375,,,,,,,,,
1736666364241,,,,,,,,,,0.0064625,-0.0433125,-0.0022,,,,,,,,,
1736666364250,,,,,,,,,,0.0149875,-0.022,0.004125,,,,,,,,,
1736666364260,,,,,,,,,,0.01925,0.001375,0.021175,,,,,,,,,
1736666364270,,,,,,,,,,0.0160875,0.014162499,0.0424875,,,,,,,,,
1736666364280,,,,,,,,,,0.0064625,0.0056375,0.053075,,,,,,,,,
1736666364291,,,,,,,,,,-0.005225,-0.0092124995,0.051975,,,,,,,,,
1736666364301,,,,,,,,,,-0.0276375,-0.0103124995,0.0435875,,,,,,,,,
1736666364311,,,,,,,,,,-0.0499125,0.0056375,0.0317625,,,,,,,,,
1736666364321,,,,,,,,,,-0.0680625,0.0163625,0.0243375,,,,,,,,,
1736666364330,,,,,,,,,,-0.0818125,0.019524999,0.0158125,,,,,,,,,
1736666364340,,,,,,,,,,-0.087175,0.019524999,0.0072875,,,,,,,,,
1736666364350,,,,,,,,,,-0.0851125,0.0099,-0.0012375,,,,,,,,,
1736666364360,,,,,,,,,,-0.071225,-0.0092124995,-0.0086624995,,,,,,,,,
1736666364371,,,,,,,,,,-0.054175,-0.0155375,-0.0149875,,,,,,,,,
1736666364381,,,,,,,,,,-0.0361625,-0.00275,-0.0160875,,,,,,,,,
1736666364391,,,,,,,,,,-0.0169125,0.018424999,-0.0044,,,,,,,,,
1736666364401,,,,,,,,,,0.0033,0.037675,0.0083875,,,,,,,,,
1736666364411,,,,,,,,,,0.024475,0.0408375,0.020075,,,,,,,,,
1736666364421,,,,,,,,,,0.042625,0.020624999,0.0243375,,,,,,,,,
1736666364431,,,,,,,,,,0.059675,-0.0103124995,0.0169125,,,,,,,,,
1736666364441,,,,,,,,,,0.066,-0.0336875,0.003025,,,,,,,,,
1736666364451,,,,,,,,,,0.060775,-0.0400125,-0.0044,,,,,,,,,
1736666364461,,,,,,,,,,0.050049998,-0.0411125,-0.0053625,,,,,,,,,
1736666364472,,,,,,,,,,0.0298375,-0.0325875,-0.0012375,,,,,,,,,
1736666364482,,,,,,,,,,0.0075625,-0.011275,0.0094875,,,,,,,,,
1736666364492,,,,,,,,,,-0.01485,0.020624999,0.0169125,,,,,,,,,
1736666364502,,,,,,,,,,-0.0350625,0.0471625,0.0169125,,,,,,,,,
1736666364511,,,,,,,,,,-0.0424875,0.0567875,0.01265,,,,,,,,,
1736666364521,,,,,,,,,,-0.039325,0.0323125,0.006325,,,,,,,,,
1736666364531,,,,,,,,,,-0.0276375,-0.00385,9.625E-4,,,,,,,,,
1736666364541,,,,,,,,,,-0.01375,-0.027224999,0.0020625,,,,,,,,,
1736666364551,,,,,,,,,,0.0022,-0.0155375,0.0072875,,,,,,,,,
1736666364561,,,,,,,,,,0.0149875,0.018424999,0.01375,,,,,,,,,
1736666364571,,,,,,,,,,0.02035,0.044,0.0232375,,,,,,,,,
1736666364581,,,,,,,,,,0.0160875,0.0567875,0.0297,,,,,,,,,
1736666364591,,,,,,,,,,0.010725,0.0471625,0.0232375,,,,,,,,,
1736666364601,,,,,,,,,,0.011825,-0.013475,0.0094875,,,,,,,,,
1736666364611,,,,,,,,,,0.0160875,-0.046475,-0.0022,,,,,,,,,
1736666364621,,,,,,,,,,0.01815,-0.0325875,-0.0075625,,,,,,,,,
1736666364631,,,,,,,,,,0.0149875,-0.014575,-0.009625,,,,,,,,,
1736666364642,,,,,,,,,,0.0160875,-0.00385,-0.009625,,,,,,,,,
1736666364652,,,,,,,,,,0.024475,-0.0209,-0.0053625,,,,,,,,,
1736666364662,,,,,,,,,,0.033,-0.0433125,-1.375E-4,,,,,,,,,
1736666364672,,,,,,,,,,0.0341,-0.0507375,0.0072875,,,,,,,,,
1736666364682,,,,,,,,,,0.0287375,-0.045375,0.01375,,,,,,,,,
1736666364693,,,,,,,,,,0.0224125,-0.0231,0.0180125,,,,,,,,,
1736666364703,,,,,,,,,,0.0127875,-0.0070125,0.0180125,,,,,,,,,
1736666364713,,,,,,,,,,0.0042625,0.0078375,0.0232375,,,,,,,,,
1736666364723,,,,,,,,,,-0.004125,0.019524999,0.0232375,,,,,,,,,
1736666364733,,,,,,,,,,-0.01265,0.015262499,0.0232375,,,,,,,,,
1736666364743,,,,,,,,,,-0.0180125,0.0089375,0.0232375,,,,,,,,,
1736666364752,,,,,,,,,,-0.0202125,0.0067375,0.0232375,,,,,,,,,
1736666364762,,,,,,,,,,-0.01375,0.011,0.0232375,,,,,,,,,
1736666364772,,,,,,,,,,-0.0031625,0.0099,0.022275,,,,,,,,,
1736666364782,,,,,,,,,,0.0075625,-0.00495,0.0232375,,,,,,,,,
1736666364792,,,,,,,,,,0.011825,-0.0103124995,0.0286,,,,,,,,,
1736666364802,,,,,,,,,,0.010725,4.125E-4,0.0328625,,,,,,,,,
1736666364813,,,,,,,,,,0.0075625,0.0121,0.0350625,,,,,,,,,
1736666364823,,,,,,,,,,0.0011,0.0056375,0.0328625,,,,,,,,,
1736666364832,,,,,,,,,,-9.625E-4,-0.022,0.0286,,,,,,,,,
1736666364842,,,,,,,,,,-0.004125,-0.0411125,0.021175,,,,,,,,,
1736666364852,,,,,,,,,,-0.006325,-0.0273625,0.01265,,,,,,,,,
1736666364862,,,,,,,,,,-0.004125,-0.011275,0.0094875,,,,,,,,,
1736666364874,,,,,,,,,,-9.625E-4,-0.0081124995,0.0094875,,,,,,,,,
1736666364884,,,,,,,,,,0.0044,-6.875E-4,0.01375,,,,,,,,,
1736666364893,,,,,,,,,,0.0075625,0.011,0.0232375,,,,,,,,,
1736666364903,,,,,,,,,,0.010725,0.019524999,0.0265375,,,,,,,,,
1736666364913,,,,,,,,,,0.0160875,0.0174625,0.0254375,,,,,,,,,
1736666364924,,,,,,,,,,0.0213125,-0.0017875,0.022275,,,,,,,,,
1736666364934,,,,,,,,,,0.0224125,-0.0155375,0.021175,,,,,,,,,
1736666364944,,,,,,,,,,0.0213125,-0.013475,0.021175,,,,,,,,,
1736666364953,,,,,,,,,,0.0213125,-0.0017875,0.020075,,,,,,,,,
1736666364963,,,,,,,,,,0.0213125,0.0089375,0.0232375,,,,,,,,,
1736666364974,,,,,,,,,,0.026675,0.0067375,0.022275,,,,,,,,,
1736666364984,,,,,,,,,,0.0341,0.001375,0.0169125,,,,,,,,,
1736666364993,,,,,,,,,,0.0374,0.003575,0.0158125,,,,,,,,,
1736666365003,,,,,,,,,,0.0341,0.0078375,0.01265,,,,,,,,,
1736666365013,,,,,,,,,,0.041525,-0.0070125,9.625E-4,,,,,,,,,
1736666365023,,,,,,,,,,0.05335,-0.0539,-0.0075625,,,,,,,,,
1736666365033,,,,,,,,,,0.0543125,-0.0570625,-0.0033,,,,,,,,,
1736666365043,,,,,,,,,,0.044825,-0.0240625,0.0083875,,,,,,,,,
1736666365053,,,,,,,,,,0.0394625,-0.013475,0.014712499,,,,,,,,,
1736666365063,,,,,,,,,,0.0331375,-0.011275,0.014712499,,,,,,,,,
1736666365073,,,,,,,,,,0.0352,-0.012375,0.003025,,,,,,,,,
1736666365083,,,,,,,,,,0.042625,-0.039049998,-0.0075625,,,,,,,,,
1736666365094,,,,,,,,,,0.0490875,-0.0485375,-0.010725,,,,,,,,,
1736666365105,,,,,,,,,,0.052249998,-0.047575,-0.010725,,,,,,,,,
1736666365114,,,,,,,,,,0.050049998,-0.0422125,-0.0064625,,,,,,,,,
1736666365124,,,,,,,,,,0.0457875,-0.0188375,-0.0022,,,,,,,,,
1736666365134,,,,,,,,,,0.0383625,-0.011275,9.625E-4,,,,,,,,,
1736666365144,,,,,,,,,,0.028875,-0.0231,0.0020625,,,,,,,,,
1736666365154,,,,,,,,,,0.01925,-0.030524999,0.004125,,,,,,,,,
1736666365164,,,,,,,,,,1.375E-4,-0.0166375,0.005225,,,,,,,,,
1736666365175,,,,,,,,,,-0.0169125,0.0078375,0.0020625,,,,,,,,,
1736666365185,,,,,,,,,,-0.0265375,-0.0028875,-0.0033,,,,,,,,,
1736666365195,,,,,,,,,,-0.0350625,-0.0092124995,-0.0022,,,,,,,,,
1736666365204,,,,,,,,,,-0.039325,0.004675,-1.375E-4,,,,,,,,,
1736666365214,,,,,,,,,,-0.0402875,0.0078375,-0.0012375,,,,,,,,,
1736666365224,,,,,,,,,,-0.037125,0.0099,-1.375E-4,,,,,,,,,
1736666365234,,,,,,,,,,-0.0308,0.015262499,0.003025,,,,,,,,,
1736666365244,,,,,,,,,,-0.0243375,0.015262499,0.0105875,,,,,,,,,
1736666365254,,,,,,,,,,-0.0169125,0.002475,0.014712499,,,,,,,,,
1736666365264,,,,,,,,,,-0.0105875,-0.013475,0.0105875,,,,,,,,,
1736666365274,,,,,,,,,,-0.006325,-0.011275,0.0072875,,,,,,,,,
1736666365284,,,,,,,,,,-0.0020625,4.125E-4,0.003025,,,,,,,,,
1736666365294,,,,,,,,,,0.0053625,-0.011275,0.003025,,,,,,,,,
1736666365304,,,,,,,,,,0.012925,-0.0325875,0.005225,,,,,,,,,
1736666365315,,,,,,,,,,0.0235125,-0.03795,0.0020625,,,,,,,,,
1736666365325,,,,,,,,,,0.0309375,-0.0325875,-0.0033,,,,,,,,,
1736666365335,,,,,,,,,,0.0341,-0.0262625,-0.0022,,,,,,,,,
1736666365345,,,,,,,,,,0.0309375,-0.012375,-0.0012375,,,,,,,,,
1736666365355,,,,,,,,,,0.0246125,0.0121,9.625E-4,,,,,,,,,
1736666365365,,,,,,,,,,0.02145,0.0248875,9.625E-4,,,,,,,,,
1736666365375,,,,,,,,,,0.01815,0.0248875,-0.0012375,,,,,,,,,
1736666365385,,,,,,,,,,0.01815,0.013062499,-0.0012375,,,,,,,,,
1736666365395,,,,,,,,,,0.01925,-0.0028875,-0.0033,,,,,,,,,
1736666365405,,,,,,,,,,0.0138875,-0.014575,-0.0012375,,,,,,,,,
1736666365415,,,,,,,,,,-0.003025,-0.0103124995,-1.375E-4,,,,,,,,,
1736666365425,,,,,,,,,,-0.0105875,-0.013475,-0.0022,,,,,,,,,
1736666365435,,,,,,,,,,-0.0072875,-0.047575,-0.0012375,,,,,,,,,
1736666365445,,,,,,,,,,-0.003025,-0.0518375,0.003025,,,,,,,,,
1736666365455,,,,,,,,,,-9.625E-4,-0.022,0.01375,,,,,,,,,
1736666365465,,,,,,,,,,-0.0020625,0.0067375,0.0275,,,,,,,,,
1736666365475,,,,,,,,,,-0.006325,0.02915,0.0391875,,,,,,,,,
1736666365485,,,,,,,,,,-0.0105875,0.0451,0.045649998,,,,,,,,,
1736666365495,,,,,,,,,,-0.01155,0.0429,0.0424875,,,,,,,,,
1736666365505,,,,,,,,,,-0.01375,0.0163625,0.0286,,,,,,,,,
1736666365515,,,,,,,,,,-0.0158125,-0.0114124995,0.0072875,,,,,,,,,
1736666365525,,,,,,,,,,-0.0169125,-0.0251625,-0.0075625,,,,,,,,,
1736666365535,,,,,,,,,,-0.018975,-0.0240625,-0.012925,,,,,,,,,
1736666365545,,,,,,,,,,-0.020075,-0.0198,-0.0097624995,,,,,,,,,
1736666365556,,,,,,,,,,-0.018975,-0.0166375,-0.0012375,,,,,,,,,
1736666365566,,,,,,,,,,-0.0083875,-0.00495,0.005225,,,,,,,,,
1736666365576,,,,,,,,,,0.0044,0.0089375,0.0083875,,,,,,,,,
1736666365586,,,,,,,,,,0.0171875,0.013062499,0.0061875,,,,,,,,,
1736666365596,,,,,,,,,,0.027775,0.0067375,0.004125,,,,,,,,,
1736666365606,,,,,,,,,,0.028875,0.0067375,0.0061875,,,,,,,,,
1736666365616,,,,,,,,,,0.02145,0.015262499,0.01155,,,,,,,,,
1736666365626,,,,,,,,,,0.009625,0.0163625,0.0094875,,,,,,,,,
1736666365637,,,,,,,,,,1.375E-4,0.0056375,9.625E-4,,,,,,,,,
1736666365647,,,,,,,,,,-0.0072875,-0.012375,-0.010725,,,,,,,,,
1736666365657,,,,,,,,,,-0.01485,-0.0251625,-0.0160875,,,,,,,,,
1736666365667,,,,,,,,,,-0.020075,-0.0103124995,-0.011825,,,,,,,,,
1736666365676,,,,,,,,,,-0.0243375,0.017324999,9.625E-4,,,,,,,,,
1736666365686,,,,,,,,,,-0.0232375,0.0323125,0.0158125,,,,,,,,,
1736666365696,,,,,,,,,,-0.0180125,0.0312125,0.0254375,,,,,,,,,
1736666365706,,,,,,,,,,-0.01265,0.0056375,0.0254375,,,,,,,,,
1736666365716,,,,,,,,,,-0.004125,-0.0231,0.0158125,,,,,,,,,
1736666365726,,,,,,,,,,-9.625E-4,-0.0188375,0.0061875,,,,,,,,,
1736666365736,,,,,,,,,,0.0022,-0.0017875,-1.375E-4,,,,,,,,,
1736666365746,,,,,,,,,,0.0064625,-0.0028875,-0.0022,,,,,,,,,
1736666365757,,,,,,,,,,0.0044,-0.0155375,-0.0012375,,,,,,,,,
1736666365767,,,,,,,,,,-0.005225,-0.00715,9.625E-4,,,,,,,,,
1736666363075,,,,,,,,,,,,,0.024653,0.140447,0.509486,,,,,,
1736666363085,,,,,,,,,,,,,-0.018271,0.355194,0.076272,,,,,,
1736666363095,,,,,,,,,,,,,-0.076155,0.267041,0.156256,,,,,,
1736666363105,,,,,,,,,,,,,0.12709,0.22521,0.101752,,,,,,
1736666363115,,,,,,,,,,,,,0.045985,0.273272,0.058673,,,,,,
1736666363125,,,,,,,,,,,,,0.139212,0.048769,0.449245,,,,,,
1736666363135,,,,,,,,,,,,,0.126895,0.180996,0.211636,,,,,,
1736666363146,,,,,,,,,,,,,-0.030089,-0.156385,0.761921,,,,,,
1736666363156,,,,,,,,,,,,,0.040909,0.004297,0.624455,,,,,,
1736666363166,,,,,,,,,,,,,-0.034895,-0.094176,0.84887,,,,,,
1736666363176,,,,,,,,,,,,,-0.0364,-0.073992,0.849808,,,,,,
1736666363185,,,,,,,,,,,,,-0.050858,0.073258,0.765802,,,,,,
1736666363195,,,,,,,,,,,,,-0.054445,0.002395,0.785349,,,,,,
1736666363205,,,,,,,,,,,,,0.036966,0.151296,0.778364,,,,,,
1736666363215,,,,,,,,,,,,,0.002388,0.151334,0.766277,,,,,,
1736666363225,,,,,,,,,,,,,0.071665,0.132695,0.675704,,,,,,
1736666363236,,,,,,,,,,,,,0.043968,0.139815,0.76205,,,,,,
1736666363247,,,,,,,,,,,,,0.002369,0.052028,0.534641,,,,,,
1736666363257,,,,,,,,,,,,,0.014635,0.067966,0.577211,,,,,,
1736666363267,,,,,,,,,,,,,-0.041982,0.042201,0.581274,,,,,,
1736666363277,,,,,,,,,,,,,-0.053026,0.044914,0.54416,,,,,,
1736666363286,,,,,,,,,,,,,-0.04386,0.118169,0.669743,,,,,,
1736666363296,,,,,,,,,,,,,-0.038216,0.099633,0.604253,,,,,,
1736666363306,,,,,,,,,,,,,-0.131295,0.091591,0.684634,,,,,,
1736666363316,,,,,,,,,,,,,-0.075384,0.111176,0.710051,,,,,,
1736666363327,,,,,,,,,,,,,-0.078345,0.102509,0.613316,,,,,,
1736666363337,,,,,,,,,,,,,-0.111871,0.109389,0.617374,,,,,,
1736666363346,,,,,,,,,,,,,-0.159155,0.072047,0.576303,,,,,,
1736666363356,,,,,,,,,,,,,-0.094306,0.120814,0.592584,,,,,,
1736666363367,,,,,,,,,,,,,0.020838,0.188246,0.656935,,,,,,
1736666363377,,,,,,,,,,,,,-0.101598,0.102922,0.596876,,,,,,
1736666363386,,,,,,,,,,,,,-0.029368,0.088035,0.589028,,,,,,
1736666363396,,,,,,,,,,,,,0.022451,0.148064,0.633391,,,,,,
1736666363406,,,,,,,,,,,,,0.007226,0.06515,0.5249,,,,,,
1736666363416,,,,,,,,,,,,,-0.055274,0.059172,0.56887,,,,,,
1736666363427,,,,,,,,,,,,,-0.082153,0.087377,0.510047,,,,,,
1736666363437,,,,,,,,,,,,,-0.040047,0.081253,0.487894,,,,,,
1736666363446,,,,,,,,,,,,,-0.143401,0.111257,0.611659,,,,,,
1736666363456,,,,,,,,,,,,,-0.108958,0.131003,0.556305,,,,,,
1736666363467,,,,,,,,,,,,,-0.061419,0.20414,0.575233,,,,,,
1736666363477,,,,,,,,,,,,,-0.11109,0.123605,0.59238,,,,,,
1736666363487,,,,,,,,,,,,,-0.072051,0.231727,0.448191,,,,,,
1736666363497,,,,,,,,,,,,,-0.061805,0.228868,0.5234,,,,,,
1736666363508,,,,,,,,,,,,,-0.086635,0.201512,0.519353,,,,,,
1736666363518,,,,,,,,,,,,,-0.095746,0.20799,0.460017,,,,,,
1736666363527,,,,,,,,,,,,,-0.066826,0.072584,0.58286,,,,,,
1736666363537,,,,,,,,,,,,,-0.068825,0.145499,0.545649,,,,,,
1736666363547,,,,,,,,,,,,,-0.075218,0.029788,0.61487,,,,,,
1736666363557,,,,,,,,,,,,,-0.065,0.05292,0.584405,,,,,,
1736666363568,,,,,,,,,,,,,-0.054287,0.044433,0.616555,,,,,,
1736666363578,,,,,,,,,,,,,-0.088883,0.064763,0.631816,,,,,,
1736666363587,,,,,,,,,,,,,-0.040802,0.034755,0.609358,,,,,,
1736666363597,,,,,,,,,,,,,-0.050217,0.034675,0.593769,,,,,,
1736666363607,,,,,,,,,,,,,-0.046024,0.019567,0.657388,,,,,,
1736666363617,,,,,,,,,,,,,-0.024609,0.063545,0.608259,,,,,,
1736666363628,,,,,,,,,,,,,0.110825,0.008358,0.808607,,,,,,
1736666363638,,,,,,,,,,,,,-0.021244,0.015076,0.739031,,,,,,
1736666363647,,,,,,,,,,,,,0.156174,-0.005612,0.531063,,,,,,
1736666363657,,,,,,,,,,,,,0.128687,1.2E-4,0.688642,,,,,,
1736666363668,,,,,,,,,,,,,0.044457,0.101509,0.508512,,,,,,
1736666363678,,,,,,,,,,,,,0.104953,0.040464,0.461857,,,,,,
1736666363688,,,,,,,,,,,,,-0.048749,0.161785,0.526842,,,,,,
1736666363698,,,,,,,,,,,,,-0.032439,0.141368,0.521763,,,,,,
1736666363708,,,,,,,,,,,,,0.023034,0.096426,0.64096,,,,,,
1736666363718,,,,,,,,,,,,,-0.006868,0.170782,0.603726,,,,,,
1736666363729,,,,,,,,,,,,,0.002288,-0.083135,0.560527,,,,,,
1736666363739,,,,,,,,,,,,,0.011385,-0.002606,0.557769,,,,,,
1736666363749,,,,,,,,,,,,,-0.050668,0.015228,0.611226,,,,,,
1736666363759,,,,,,,,,,,,,-0.019585,-0.028267,0.566925,,,,,,
1736666363768,,,,,,,,,,,,,-0.023186,0.138719,0.629922,,,,,,
1736666363778,,,,,,,,,,,,,-0.037471,0.108024,0.620523,,,,,,
1736666363788,,,,,,,,,,,,,-0.019575,0.078818,0.601385,,,,,,
1736666363798,,,,,,,,,,,,,-0.038342,0.132789,0.617879,,,,,,
1736666363808,,,,,,,,,,,,,0.015297,0.037047,0.620646,,,,,,
1736666363818,,,,,,,,,,,,,-0.015922,0.023332,0.593443,,,,,,
1736666363829,,,,,,,,,,,,,-0.019214,0.07737,0.590153,,,,,,
1736666363839,,,,,,,,,,,,,0.033156,0.069716,0.611423,,,,,,
1736666363848,,,,,,,,,,,,,-0.075985,0.153835,0.596527,,,,,,
1736666363858,,,,,,,,,,,,,-0.046782,0.101772,0.578166,,,,,,
1736666363868,,,,,,,,,,,,,-0.060343,0.13261,0.578337,,,,,,
1736666363878,,,,,,,,,,,,,-0.047258,0.146851,0.581228,,,,,,
1736666363889,,,,,,,,,,,,,-0.070006,0.105355,0.521867,,,,,,
1736666363899,,,,,,,,,,,,,-0.063511,0.11771,0.52438,,,,,,
1736666363908,,,,,,,,,,,,,-0.089725,0.079765,0.668194,,,,,,
1736666363918,,,,,,,,,,,,,-0.057621,0.103899,0.595919,,,,,,
1736666363928,,,,,,,,,,,,,-0.024917,0.086476,0.657999,,,,,,
1736666363939,,,,,,,,,,,,,-0.080094,0.091807,0.681426,,,,,,
1736666363949,,,,,,,,,,,,,-0.083495,0.158297,0.556727,,,,,,
1736666363959,,,,,,,,,,,,,-0.044435,0.143067,0.603139,,,,,,
1736666363969,,,,,,,,,,,,,-0.080868,0.155781,0.563083,,,,,,
1736666363979,,,,,,,,,,,,,-0.063958,0.164511,0.533069,,,,,,
1736666363990,,,,,,,,,,,,,-0.03928,0.038314,0.69236,,,,,,
1736666364000,,,,,,,,,,,,,-0.065623,0.108516,0.634334,,,,,,
1736666364010,,,,,,,,,,,,,0.058786,-0.092995,0.699252,,,,,,
1736666364020,,,,,,,,,,,,,-0.001917,-0.023673,0.71811,,,,,,
1736666364029,,,,,,,,,,,,,0.083311,0.016575,0.610913,,,,,,
1736666364039,,,,,,,,,,,,,0.06345,-0.045813,0.650089,,,,,,
1736666364049,,,,,,,,,,,,,-0.064024,0.16707,0.569039,,,,,,
1736666364059,,,,,,,,,,,,,0.004021,0.071823,0.558013,,,,,,
1736666364070,,,,,,,,,,,,,-0.165682,0.215672,0.536248,,,,,,
1736666364079,,,,,,,,,,,,,-0.161688,0.201821,0.55016,,,,,,
1736666364089,,,,,,,,,,,,,-0.036409,0.156012,0.458493,,,,,,
1736666364099,,,,,,,,,,,,,-0.080548,0.156242,0.495327,,,,,,
1736666364109,,,,,,,,,,,,,-0.016911,0.150177,0.453241,,,,,,
1736666364119,,,,,,,,,,,,,-0.022953,0.147214,0.439674,,,,,,
1736666364129,,,,,,,,,,,,,-0.061555,0.099663,0.677536,,,,,,
1736666364139,,,,,,,,,,,,,-0.013842,0.152592,0.548188,,,,,,
1736666364149,,,,,,,,,,,,,0.056702,-0.053366,0.728155,,,,,,
1736666364159,,,,,,,,,,,,,-0.015688,0.053651,0.739927,,,,,,
1736666364170,,,,,,,,,,,,,0.00334,-0.053577,0.743536,,,,,,
1736666364180,,,,,,,,,,,,,0.041013,-0.044932,0.700525,,,,,,
1736666364190,,,,,,,,,,,,,-0.113425,0.086532,0.717495,,,,,,
1736666364200,,,,,,,,,,,,,-0.063769,0.034637,0.724433,,,,,,
1736666364210,,,,,,,,,,,,,-0.027432,0.165856,0.584575,,,,,,
1736666364220,,,,,,,,,,,,,-0.097533,0.133821,0.661721,,,,,,
1736666364230,,,,,,,,,,,,,-0.027942,0.147609,0.508892,,,,,,
1736666364240,,,,,,,,,,,,,-5.48E-4,0.147882,0.536003,,,,,,
1736666364250,,,,,,,,,,,,,-0.085995,0.226616,0.433888,,,,,,
1736666364260,,,,,,,,,,,,,-0.054376,0.163385,0.460163,,,,,,
1736666364271,,,,,,,,,,,,,0.037781,0.175225,0.514338,,,,,,
1736666364281,,,,,,,,,,,,,-0.041533,0.202008,0.501027,,,,,,
1736666364291,,,,,,,,,,,,,0.121229,0.036183,0.449784,,,,,,
1736666364301,,,,,,,,,,,,,0.057888,0.107844,0.484494,,,,,,
1736666364310,,,,,,,,,,,,,0.056428,-0.036696,0.529515,,,,,,
1736666364320,,,,,,,,,,,,,0.104069,0.019327,0.457737,,,,,,
1736666364330,,,,,,,,,,,,,0.023935,-0.055487,0.673713,,,,,,
1736666364340,,,,,,,,,,,,,0.007382,-0.021046,0.608633,,,,,,
1736666364350,,,,,,,,,,,,,-0.010873,-0.028541,0.72368,,,,,,
1736666364360,,,,,,,,,,,,,0.006157,1.95E-4,0.721369,,,,,,
1736666364371,,,,,,,,,,,,,-0.036163,0.058443,0.654892,,,,,,
1736666364381,,,,,,,,,,,,,0.007748,0.01627,0.673335,,,,,,
1736666364390,,,,,,,,,,,,,-0.076872,0.12649,0.763343,,,,,,
1736666364401,,,,,,,,,,,,,-0.050422,0.107234,0.706487,,,,,,
1736666364411,,,,,,,,,,,,,-0.030546,0.055664,0.781407,,,,,,
1736666364421,,,,,,,,,,,,,-0.043247,0.090915,0.786348,,,,,,
1736666364432,,,,,,,,,,,,,-0.005215,0.090727,0.63854,,,,,,
1736666364442,,,,,,,,,,,,,-0.002976,0.021456,0.723062,,,,,,
1736666364451,,,,,,,,,,,,,-0.049522,0.248774,0.440326,,,,,,
1736666364461,,,,,,,,,,,,,-0.041309,0.15919,0.531528,,,,,,
1736666364472,,,,,,,,,,,,,-0.052401,0.233077,0.362802,,,,,,
1736666364482,,,,,,,,,,,,,-0.036186,0.22702,0.400901,,,,,,
1736666364491,,,,,,,,,,,,,-0.008855,0.082844,0.469781,,,,,,
1736666364501,,,,,,,,,,,,,-0.017256,0.137388,0.383473,,,,,,
1736666364511,,,,,,,,,,,,,-0.052482,0.022095,0.714482,,,,,,
1736666364521,,,,,,,,,,,,,-0.016373,0.060586,0.634332,,,,,,
1736666364531,,,,,,,,,,,,,-0.029476,0.065307,0.58097,,,,,,
1736666364541,,,,,,,,,,,,,-0.079553,0.058146,0.673931,,,,,,
1736666364551,,,,,,,,,,,,,-0.041048,0.00308,0.484561,,,,,,
1736666364561,,,,,,,,,,,,,-0.001751,0.047294,0.500986,,,,,,
1736666364572,,,,,,,,,,,,,-0.109433,-0.058496,0.663955,,,,,,
1736666364582,,,,,,,,,,,,,-0.078514,-0.010156,0.569722,,,,,,
1736666364591,,,,,,,,,,,,,0.069065,0.081801,0.727345,,,,,,
1736666364601,,,,,,,,,,,,,0.03571,0.060222,0.746101,,,,,,
1736666364611,,,,,,,,,,,,,-0.024371,0.030594,0.436628,,,,,,
1736666364621,,,,,,,,,,,,,0.028159,0.033481,0.556173,,,,,,
1736666364631,,,,,,,,,,,,,-0.065816,0.092739,0.510223,,,,,,
1736666364642,,,,,,,,,,,,,-0.06002,0.010246,0.443784,,,,,,
1736666364652,,,,,,,,,,,,,-0.087266,0.114795,0.414901,,,,,,
1736666364662,,,,,,,,,,,,,-0.057011,0.135558,0.530956,,,,,,
1736666364673,,,,,,,,,,,,,-0.042453,0.057675,0.256659,,,,,,
1736666364683,,,,,,,,,,,,,-0.080307,0.062532,0.321865,,,,,,
1736666364692,,,,,,,,,,,,,0.006562,0.080326,0.253065,,,,,,
1736666364702,,,,,,,,,,,,,0.008996,0.06806,0.239295,,,,,,
1736666364712,,,,,,,,,,,,,-0.042411,0.033513,0.309151,,,,,,
1736666364722,,,,,,,,,,,,,-0.033562,0.046526,0.261288,,,,,,
1736666364733,,,,,,,,,,,,,-0.073593,0.046792,0.378698,,,,,,
1736666364743,,,,,,,,,,,,,-0.061094,0.041692,0.352298,,,,,,
1736666364752,,,,,,,,,,,,,0.0149,0.012965,0.428765,,,,,,
1736666364762,,,,,,,,,,,,,-0.013358,0.046579,0.413654,,,,,,
1736666364773,,,,,,,,,,,,,0.030082,0.021222,0.394381,,,,,,
1736666364783,,,,,,,,,,,,,0.02308,0.020586,0.444228,,,,,,
1736666364793,,,,,,,,,,,,,0.008748,0.044038,0.321665,,,,,,
1736666364803,,,,,,,,,,,,,0.006533,0.038024,0.333712,,,,,,
1736666364812,,,,,,,,,,,,,-0.013573,0.0066,0.439062,,,,,,
1736666364822,,,,,,,,,,,,,-0.001814,0.024971,0.400203,,,,,,
1736666364832,,,,,,,,,,,,,0.059142,0.012926,0.342277,,,,,,
1736666364842,,,,,,,,,,,,,-0.020574,-0.005637,0.396533,,,,,,
1736666364852,,,,,,,,,,,,,0.04408,0.049967,0.331079,,,,,,
1736666364862,,,,,,,,,,,,,0.066872,0.035486,0.333259,,,,,,
1736666364874,,,,,,,,,,,,,-0.029213,0.093715,0.344841,,,,,,
1736666364884,,,,,,,,,,,,,-0.013779,0.084601,0.316731,,,,,,
1736666364893,,,,,,,,,,,,,0.003874,0.027685,0.367615,,,,,,
1736666364903,,,,,,,,,,,,,-0.010401,0.05943,0.353168,,,,,,
1736666364914,,,,,,,,,,,,,0.017038,0.059205,0.420603,,,,,,
1736666364924,,,,,,,,,,,,,0.02105,0.013736,0.399253,,,,,,
1736666364934,,,,,,,,,,,,,-0.007634,0.057808,0.3343,,,,,,
1736666364944,,,,,,,,,,,,,-0.016808,0.054624,0.344232,,,,,,
1736666364953,,,,,,,,,,,,,-0.002548,0.035065,0.363762,,,,,,
1736666364963,,,,,,,,,,,,,-0.002888,0.043634,0.359098,,,,,,
1736666364973,,,,,,,,,,,,,0.015772,-0.008908,0.373752,,,,,,
1736666364983,,,,,,,,,,,,,0.008487,-2.8E-4,0.395012,,,,,,
1736666364993,,,,,,,,,,,,,-0.024368,0.005172,0.452321,,,,,,
1736666365003,,,,,,,,,,,,,-0.015931,-0.022401,0.373199,,,,,,
1736666365013,,,,,,,,,,,,,0.02189,0.123124,0.348984,,,,,,
1736666365023,,,,,,,,,,,,,0.056965,0.121392,0.489101,,,,,,
1736666365034,,,,,,,,,,,,,-0.050383,0.104551,0.212281,,,,,,
1736666365044,,,,,,,,,,,,,-0.085187,0.058095,0.206591,,,,,,
1736666365053,,,,,,,,,,,,,0.006009,0.047039,0.284255,,,,,,
1736666365063,,,,,,,,,,,,,-0.008596,0.052743,0.260761,,,,,,
1736666365073,,,,,,,,,,,,,0.078695,0.071927,0.290112,,,,,,
1736666365083,,,,,,,,,,,,,0.067634,0.077205,0.350532,,,,,,
1736666365094,,,,,,,,,,,,,-0.075181,0.034285,0.104541,,,,,,
1736666365105,,,,,,,,,,,,,-0.042462,0.018087,0.182151,,,,,,
1736666365114,,,,,,,,,,,,,-0.045797,0.064185,0.043848,,,,,,
1736666365125,,,,,,,,,,,,,-0.06539,0.019018,0.042843,,,,,,
1736666365134,,,,,,,,,,,,,-0.003604,0.059735,0.048462,,,,,,
1736666365144,,,,,,,,,,,,,-0.041634,0.047751,0.054224,,,,,,
1736666365155,,,,,,,,,,,,,0.01139,0.006653,0.023862,,,,,,
1736666365165,,,,,,,,,,,,,0.003872,0.037482,0.019026,,,,,,
1736666365175,,,,,,,,,,,,,0.068851,0.079314,0.162878,,,,,,
1736666365185,,,,,,,,,,,,,0.067157,0.074899,0.124654,,,,,,
1736666365194,,,,,,,,,,,,,-0.073807,0.044859,0.19406,,,,,,
1736666365204,,,,,,,,,,,,,-0.022203,0.059313,0.146007,,,,,,
1736666365214,,,,,,,,,,,,,-0.094192,0.055314,0.256101,,,,,,
1736666365224,,,,,,,,,,,,,-0.074113,0.033542,0.248868,,,,,,
1736666365235,,,,,,,,,,,,,-0.043247,0.075071,0.351587,,,,,,
1736666365245,,,,,,,,,,,,,-0.084835,0.085051,0.294198,,,,,,
1736666365254,,,,,,,,,,,,,0.04827,-0.01493,0.258762,,,,,,
1736666365265,,,,,,,,,,,,,0.01812,0.028634,0.32243,,,,,,
1736666365275,,,,,,,,,,,,,-0.028586,-0.062703,0.235817,,,,,,
1736666365285,,,,,,,,,,,,,0.030626,-0.04979,0.215551,,,,,,
1736666365294,,,,,,,,,,,,,0.023943,-0.024555,0.190591,,,,,,
1736666365304,,,,,,,,,,,,,-0.036888,-0.035933,0.235463,,,,,,
1736666365315,,,,,,,,,,,,,0.100726,0.044105,0.088883,,,,,,
1736666365325,,,,,,,,,,,,,0.057693,1.52E-4,0.120429,,,,,,
1736666365335,,,,,,,,,,,,,-0.048174,0.036545,-0.027984,,,,,,
1736666365345,,,,,,,,,,,,,0.026651,0.027761,0.020911,,,,,,
1736666365355,,,,,,,,,,,,,-0.060722,0.004139,0.033491,,,,,,
1736666365365,,,,,,,,,,,,,-0.055638,0.014112,-0.016265,,,,,,
1736666365375,,,,,,,,,,,,,-0.02926,0.04451,0.063431,,,,,,
1736666365385,,,,,,,,,,,,,-0.032859,-8.81E-4,0.071412,,,,,,
1736666365395,,,,,,,,,,,,,-0.064016,0.022152,0.01416,,,,,,
1736666365405,,,,,,,,,,,,,-0.036055,0.067035,0.048253,,,,,,
1736666365415,,,,,,,,,,,,,0.080774,0.177278,0.092097,,,,,,
1736666365425,,,,,,,,,,,,,-0.03779,0.073733,0.050564,,,,,,
1736666365435,,,,,,,,,,,,,-0.044129,0.011488,-0.082858,,,,,,
1736666365445,,,,,,,,,,,,,0.036237,0.100774,0.020313,,,,,,
1736666365456,,,,,,,,,,,,,-0.153635,-0.074945,-0.012179,,,,,,
1736666365466,,,,,,,,,,,,,-0.109036,-0.078221,-0.084502,,,,,,
1736666365475,,,,,,,,,,,,,-0.013302,-0.01229,0.164012,,,,,,
1736666365485,,,,,,,,,,,,,-0.092732,-0.044325,0.072609,,,,,,
1736666365495,,,,,,,,,,,,,0.09807,-0.017186,0.278098,,,,,,
1736666365505,,,,,,,,,,,,,0.068728,0.003094,0.279344,,,,,,
1736666365516,,,,,,,,,,,,,0.094522,-0.037841,0.115595,,,,,,
1736666365526,,,,,,,,,,,,,0.091063,-0.017319,0.195742,,,,,,
1736666365535,,,,,,,,,,,,,-0.01264,-0.014106,0.022197,,,,,,
1736666365545,,,,,,,,,,,,,0.022506,-0.034615,0.028861,,,,,,
1736666365555,,,,,,,,,,,,,0.059625,-0.022349,-0.017478,,,,,,
1736666365565,,,,,,,,,,,,,-0.003441,-0.017512,-0.001247,,,,,,
1736666365577,,,,,,,,,,,,,0.069436,-0.035662,-0.027695,,,,,,
1736666365587,,,,,,,,,,,,,0.081516,-0.039493,-0.016009,,,,,,
1736666365597,,,,,,,,,,,,,-0.08044,-7.97E-4,-0.056962,,,,,,
1736666365607,,,,,,,,,,,,,-0.005773,-0.020964,-0.032294,,,,,,
1736666365616,,,,,,,,,,,,,-0.018231,0.026186,0.003785,,,,,,
1736666365626,,,,,,,,,,,,,-0.072705,0.001527,-0.048348,,,,,,
1736666365637,,,,,,,,,,,,,-0.013122,0.094205,-0.009716,,,,,,
1736666365647,,,,,,,,,,,,,-0.003488,0.043852,0.022459,,,,,,
1736666365656,,,,,,,,,,,,,-0.106045,0.111381,-0.094649,,,,,,
1736666365666,,,,,,,,,,,,,-0.049646,0.095672,-0.088343,,,,,,
1736666365676,,,,,,,,,,,,,-0.050675,0.005095,-0.00574,,,,,,
1736666365686,,,,,,,,,,,,,-0.084126,0.061895,-0.03687,,,,,,
1736666365696,,,,,,,,,,,,,0.035962,-0.116844,0.047859,,,,,,
1736666365706,,,,,,,,,,,,,-5.19E-4,-0.052704,0.048474,,,,,,
1736666365716,,,,,,,,,,,,,0.056803,-0.143143,-0.093654,,,,,,
1736666365726,,,,,,,,,,,,,0.03835,-0.132112,-0.040404,,,,,,
1736666365737,,,,,,,,,,,,,-0.0248,-0.090569,-0.049191,,,,,,
1736666365746,,,,,,,,,,,,,0.025151,-0.108077,-0.088348,,,,,,
1736666365757,,,,,,,,,,,,,-0.00216,-0.08844,-0.015324,,,,,,
1736666365767,,,,,,,,,,,,,-0.057665,-0.099836,-0.078685,,,,,,
1736666363085,,,,,,,,,,,,,,,,0.087293,-0.046896,-0.754961,,,
1736666363095,,,,,,,,,,,,,,,,0.087985,-0.048126,-0.754896,,,
1736666363105,,,,,,,,,,,,,,,,0.089137,-0.050112,-0.744148,,,
1736666363115,,,,,,,,,,,,,,,,0.089078,-0.050728,-0.74471,,,
1736666363125,,,,,,,,,,,,,,,,0.089144,-0.051052,-0.73422,,,
1736666363135,,,,,,,,,,,,,,,,0.089681,-0.051387,-0.72345,,,
1736666363146,,,,,,,,,,,,,,,,0.089255,-0.049886,-0.713342,,,
1736666363156,,,,,,,,,,,,,,,,0.089083,-0.048969,-0.703057,,,
1736666363166,,,,,,,,,,,,,,,,0.088645,-0.047642,-0.693128,,,
1736666363176,,,,,,,,,,,,,,,,0.088245,-0.046512,-0.683146,,,
1736666363185,,,,,,,,,,,,,,,,0.088474,-0.04593,-0.673253,,,
1736666363195,,,,,,,,,,,,,,,,0.0886,-0.045211,-0.663228,,,
1736666363205,,,,,,,,,,,,,,,,0.089098,-0.04512,-0.652772,,,
1736666363215,,,,,,,,,,,,,,,,0.089803,-0.044937,-0.642518,,,
1736666363225,,,,,,,,,,,,,,,,0.090373,-0.044868,-0.631926,,,
1736666363236,,,,,,,,,,,,,,,,0.09097,-0.044736,-0.621235,,,
1736666363246,,,,,,,,,,,,,,,,0.091371,-0.04429,-0.610761,,,
1736666363256,,,,,,,,,,,,,,,,0.091731,-0.043745,-0.600355,,,
1736666363266,,,,,,,,,,,,,,,,0.092045,-0.042785,-0.589887,,,
1736666363276,,,,,,,,,,,,,,,,0.092301,-0.041682,-0.579672,,,
1736666363287,,,,,,,,,,,,,,,,0.092577,-0.040663,-0.569327,,,
1736666363297,,,,,,,,,,,,,,,,0.09277,-0.039556,-0.559152,,,
1736666363306,,,,,,,,,,,,,,,,0.093011,-0.038117,-0.548567,,,
1736666363316,,,,,,,,,,,,,,,,0.093143,-0.036935,-0.538421,,,
1736666363326,,,,,,,,,,,,,,,,0.093292,-0.035808,-0.527634,,,
1736666363336,,,,,,,,,,,,,,,,0.093501,-0.034581,-0.517111,,,
1736666363346,,,,,,,,,,,,,,,,0.093706,-0.033099,-0.506484,,,
1736666363356,,,,,,,,,,,,,,,,0.093964,-0.031893,-0.495871,,,
1736666363367,,,,,,,,,,,,,,,,0.09416,-0.031119,-0.485226,,,
1736666363377,,,,,,,,,,,,,,,,0.094266,-0.029785,-0.474917,,,
1736666363387,,,,,,,,,,,,,,,,0.094157,-0.028754,-0.464461,,,
1736666363396,,,,,,,,,,,,,,,,0.09413,-0.02803,-0.454347,,,
1736666363406,,,,,,,,,,,,,,,,0.093887,-0.027122,-0.444128,,,
1736666363416,,,,,,,,,,,,,,,,0.093642,-0.026046,-0.434136,,,
1736666363427,,,,,,,,,,,,,,,,0.093562,-0.024977,-0.424453,,,
1736666363437,,,,,,,,,,,,,,,,0.093461,-0.023961,-0.414876,,,
1736666363446,,,,,,,,,,,,,,,,0.093552,-0.022568,-0.40579,,,
1736666363456,,,,,,,,,,,,,,,,0.093646,-0.021412,-0.39672,,,
1736666363467,,,,,,,,,,,,,,,,0.093865,-0.020607,-0.388537,,,
1736666363477,,,,,,,,,,,,,,,,0.093836,-0.019478,-0.380062,,,
1736666363487,,,,,,,,,,,,,,,,0.094193,-0.018779,-0.372326,,,
1736666363497,,,,,,,,,,,,,,,,0.094471,-0.01811,-0.364608,,,
1736666363507,,,,,,,,,,,,,,,,0.094697,-0.017208,-0.357215,,,
1736666363517,,,,,,,,,,,,,,,,0.09499,-0.016207,-0.349985,,,
1736666363528,,,,,,,,,,,,,,,,0.094716,-0.015028,-0.342596,,,
1736666363537,,,,,,,,,,,,,,,,0.094718,-0.013956,-0.33561,,,
1736666363547,,,,,,,,,,,,,,,,0.094328,-0.012697,-0.3283,,,
1736666363557,,,,,,,,,,,,,,,,0.094012,-0.011559,-0.321354,,,
1736666363567,,,,,,,,,,,,,,,,0.093656,-0.010539,-0.314181,,,
1736666363577,,,,,,,,,,,,,,,,0.093397,-0.009516,-0.30732,,,
1736666363587,,,,,,,,,,,,,,,,0.093065,-0.00862,-0.300165,,,
1736666363597,,,,,,,,,,,,,,,,0.092798,-0.007657,-0.29328,,,
1736666363607,,,,,,,,,,,,,,,,0.092461,-0.006673,-0.286638,,,
1736666363617,,,,,,,,,,,,,,,,0.092306,-0.005801,-0.279918,,,
1736666363628,,,,,,,,,,,,,,,,0.091699,-0.005341,-0.273615,,,
1736666363638,,,,,,,,,,,,,,,,0.09119,-0.004531,-0.267463,,,
1736666363648,,,,,,,,,,,,,,,,0.090474,-0.004678,-0.262073,,,
1736666363658,,,,,,,,,,,,,,,,0.089644,-0.004862,-0.256719,,,
1736666363667,,,,,,,,,,,,,,,,0.08927,-0.004819,-0.252238,,,
1736666363677,,,,,,,,,,,,,,,,0.088643,-0.004919,-0.247688,,,
1736666363687,,,,,,,,,,,,,,,,0.088474,-0.004518,-0.243504,,,
1736666363697,,,,,,,,,,,,,,,,0.088194,-0.004055,-0.239402,,,
1736666363708,,,,,,,,,,,,,,,,0.087695,-0.003665,-0.235059,,,
1736666363718,,,,,,,,,,,,,,,,0.087521,-0.003228,-0.2308,,,
1736666363728,,,,,,,,,,,,,,,,0.08658,-0.002542,-0.227147,,,
1736666363738,,,,,,,,,,,,,,,,0.085966,-0.002005,-0.223323,,,
1736666363748,,,,,,,,,,,,,,,,0.08549,-0.001207,-0.219959,,,
1736666363758,,,,,,,,,,,,,,,,0.084896,-5.27E-4,-0.216709,,,
1736666363769,,,,,,,,,,,,,,,,0.084845,-1.01E-4,-0.213808,,,
1736666363779,,,,,,,,,,,,,,,,0.084741,3.31E-4,-0.210851,,,
1736666363789,,,,,,,,,,,,,,,,0.084566,6.88E-4,-0.208345,,,
1736666363799,,,,,,,,,,,,,,,,0.084602,0.001072,-0.205947,,,
1736666363808,,,,,,,,,,,,,,,,0.084275,0.001401,-0.203215,,,
1736666363818,,,,,,,,,,,,,,,,0.083937,0.001893,-0.200759,,,
1736666363828,,,,,,,,,,,,,,,,0.083749,0.002272,-0.19792,,,
1736666363838,,,,,,,,,,,,,,,,0.083508,0.002454,-0.195436,,,
1736666363848,,,,,,,,,,,,,,,,0.083614,0.003016,-0.192771,,,
1736666363858,,,,,,,,,,,,,,,,0.083556,0.003515,-0.190179,,,
1736666363869,,,,,,,,,,,,,,,,0.083634,0.004043,-0.188195,,,
1736666363879,,,,,,,,,,,,,,,,0.08374,0.004458,-0.185838,,,
1736666363889,,,,,,,,,,,,,,,,0.083733,0.004937,-0.184214,,,
1736666363899,,,,,,,,,,,,,,,,0.08372,0.005416,-0.182536,,,
1736666363908,,,,,,,,,,,,,,,,0.083508,0.006091,-0.181354,,,
1736666363918,,,,,,,,,,,,,,,,0.083383,0.006571,-0.179914,,,
1736666363929,,,,,,,,,,,,,,,,0.083176,0.006821,-0.178786,,,
1736666363940,,,,,,,,,,,,,,,,0.083028,0.0072,-0.177765,,,
1736666363949,,,,,,,,,,,,,,,,0.083226,0.007501,-0.175652,,,
1736666363959,,,,,,,,,,,,,,,,0.083382,0.007698,-0.174255,,,
1736666363970,,,,,,,,,,,,,,,,0.083641,0.008129,-0.172023,,,
1736666363980,,,,,,,,,,,,,,,,0.083972,0.008609,-0.169804,,,
1736666363990,,,,,,,,,,,,,,,,0.083802,0.009181,-0.16775,,,
1736666364000,,,,,,,,,,,,,,,,0.083879,0.009774,-0.165666,,,
1736666364009,,,,,,,,,,,,,,,,0.083165,0.009905,-0.163839,,,
1736666364019,,,,,,,,,,,,,,,,0.082639,0.010078,-0.162063,,,
1736666364029,,,,,,,,,,,,,,,,0.082212,0.00974,-0.160769,,,
1736666364039,,,,,,,,,,,,,,,,0.08157,0.009489,-0.159564,,,
1736666364050,,,,,,,,,,,,,,,,0.081766,0.009619,-0.158544,,,
1736666364060,,,,,,,,,,,,,,,,0.081666,0.009572,-0.157542,,,
1736666364070,,,,,,,,,,,,,,,,0.082161,0.01009,-0.156144,,,
1736666364080,,,,,,,,,,,,,,,,0.082609,0.010583,-0.154851,,,
1736666364089,,,,,,,,,,,,,,,,0.082893,0.010595,-0.153321,,,
1736666364099,,,,,,,,,,,,,,,,0.083167,0.010824,-0.151887,,,
1736666364110,,,,,,,,,,,,,,,,0.083415,0.010871,-0.150851,,,
1736666364120,,,,,,,,,,,,,,,,0.083654,0.011069,-0.149488,,,
1736666364130,,,,,,,,,,,,,,,,0.083607,0.011587,-0.148569,,,
1736666364140,,,,,,,,,,,,,,,,0.083755,0.011902,-0.147564,,,
1736666364149,,,,,,,,,,,,,,,,0.083062,0.011944,-0.146962,,,
1736666364159,,,,,,,,,,,,,,,,0.082691,0.012051,-0.146273,,,
1736666364170,,,,,,,,,,,,,,,,0.081954,0.012119,-0.146089,,,
1736666364180,,,,,,,,,,,,,,,,0.081264,0.012065,-0.1458,,,
1736666364190,,,,,,,,,,,,,,,,0.081075,0.012515,-0.145911,,,
1736666364200,,,,,,,,,,,,,,,,0.080719,0.012683,-0.145901,,,
1736666364211,,,,,,,,,,,,,,,,0.080875,0.012505,-0.146177,,,
1736666364221,,,,,,,,,,,,,,,,0.080936,0.012562,-0.146266,,,
1736666364230,,,,,,,,,,,,,,,,0.08114,0.012341,-0.146496,,,
1736666364240,,,,,,,,,,,,,,,,0.081394,0.012047,-0.146708,,,
1736666364250,,,,,,,,,,,,,,,,0.082067,0.012143,-0.146868,,,
1736666364260,,,,,,,,,,,,,,,,0.082545,0.012254,-0.146935,,,
1736666364270,,,,,,,,,,,,,,,,0.08301,0.01203,-0.14659,,,
1736666364280,,,,,,,,,,,,,,,,0.083548,0.012067,-0.146393,,,
1736666364290,,,,,,,,,,,,,,,,0.083434,0.011492,-0.146034,,,
1736666364300,,,,,,,,,,,,,,,,0.083453,0.011133,-0.145644,,,
1736666364311,,,,,,,,,,,,,,,,0.082852,0.010977,-0.145393,,,
1736666364321,,,,,,,,,,,,,,,,0.082365,0.010654,-0.145159,,,
1736666364331,,,,,,,,,,,,,,,,0.081504,0.010731,-0.145337,,,
1736666364341,,,,,,,,,,,,,,,,0.080737,0.010855,-0.145329,,,
1736666364350,,,,,,,,,,,,,,,,0.079927,0.011008,-0.145782,,,
1736666364360,,,,,,,,,,,,,,,,0.079249,0.010966,-0.146249,,,
1736666364370,,,,,,,,,,,,,,,,0.078885,0.011012,-0.146585,,,
1736666364380,,,,,,,,,,,,,,,,0.078451,0.010957,-0.146894,,,
1736666364391,,,,,,,,,,,,,,,,0.078484,0.011242,-0.14731,,,
1736666364402,,,,,,,,,,,,,,,,0.078588,0.011512,-0.147657,,,
1736666364412,,,,,,,,,,,,,,,,0.078581,0.011726,-0.147907,,,
1736666364422,,,,,,,,,,,,,,,,0.078773,0.01185,-0.148182,,,
1736666364431,,,,,,,,,,,,,,,,0.079058,0.011662,-0.148852,,,
1736666364441,,,,,,,,,,,,,,,,0.0791,0.011391,-0.149147,,,
1736666364451,,,,,,,,,,,,,,,,0.080025,0.011133,-0.150557,,,
1736666364461,,,,,,,,,,,,,,,,0.080557,0.010896,-0.151661,,,
1736666364471,,,,,,,,,,,,,,,,0.081347,0.010708,-0.153014,,,
1736666364481,,,,,,,,,,,,,,,,0.082009,0.010568,-0.154198,,,
1736666364492,,,,,,,,,,,,,,,,0.082065,0.010588,-0.155416,,,
1736666364502,,,,,,,,,,,,,,,,0.082269,0.010749,-0.156552,,,
1736666364511,,,,,,,,,,,,,,,,0.081924,0.011174,-0.157725,,,
1736666364521,,,,,,,,,,,,,,,,0.081719,0.011306,-0.159011,,,
1736666364531,,,,,,,,,,,,,,,,0.081597,0.011303,-0.160262,,,
1736666364541,,,,,,,,,,,,,,,,0.08147,0.011369,-0.161438,,,
1736666364551,,,,,,,,,,,,,,,,0.081328,0.011378,-0.162384,,,
1736666364561,,,,,,,,,,,,,,,,0.081389,0.011344,-0.163227,,,
1736666364571,,,,,,,,,,,,,,,,0.081119,0.011935,-0.164566,,,
1736666364581,,,,,,,,,,,,,,,,0.081018,0.012433,-0.165464,,,
1736666364591,,,,,,,,,,,,,,,,0.08106,0.012216,-0.167158,,,
1736666364601,,,,,,,,,,,,,,,,0.080986,0.011845,-0.168705,,,
1736666364611,,,,,,,,,,,,,,,,0.080973,0.011589,-0.170544,,,
1736666364621,,,,,,,,,,,,,,,,0.080906,0.011171,-0.172244,,,
1736666364631,,,,,,,,,,,,,,,,0.081104,0.011175,-0.174179,,,
1736666364642,,,,,,,,,,,,,,,,0.081063,0.011276,-0.176071,,,
1736666364652,,,,,,,,,,,,,,,,0.08143,0.011304,-0.178167,,,
1736666364662,,,,,,,,,,,,,,,,0.081822,0.011057,-0.180126,,,
1736666364672,,,,,,,,,,,,,,,,0.082081,0.010789,-0.182436,,,
1736666364682,,,,,,,,,,,,,,,,0.08232,0.010688,-0.184383,,,
1736666364693,,,,,,,,,,,,,,,,0.082605,0.010326,-0.186804,,,
1736666364703,,,,,,,,,,,,,,,,0.082824,0.010044,-0.189087,,,
1736666364713,,,,,,,,,,,,,,,,0.082895,0.010078,-0.191711,,,
1736666364723,,,,,,,,,,,,,,,,0.08299,0.010124,-0.193978,,,
1736666364732,,,,,,,,,,,,,,,,0.083007,0.010313,-0.196563,,,
1736666364742,,,,,,,,,,,,,,,,0.082979,0.010428,-0.199031,,,
1736666364753,,,,,,,,,,,,,,,,0.082756,0.010244,-0.201416,,,
1736666364763,,,,,,,,,,,,,,,,0.082702,0.010153,-0.203828,,,
1736666364772,,,,,,,,,,,,,,,,0.082592,0.009891,-0.206246,,,
1736666364782,,,,,,,,,,,,,,,,0.082489,0.009566,-0.208474,,,
1736666364792,,,,,,,,,,,,,,,,0.082545,0.009243,-0.21117,,,
1736666364802,,,,,,,,,,,,,,,,0.082582,0.00898,-0.21345,,,
1736666364813,,,,,,,,,,,,,,,,0.082463,0.008886,-0.216099,,,
1736666364823,,,,,,,,,,,,,,,,0.082378,0.008698,-0.218675,,,
1736666364833,,,,,,,,,,,,,,,,0.082205,0.008142,-0.221157,,,
1736666364843,,,,,,,,,,,,,,,,0.081949,0.007837,-0.22361,,,
1736666364852,,,,,,,,,,,,,,,,0.081874,0.007281,-0.226292,,,
1736666364862,,,,,,,,,,,,,,,,0.081761,0.00672,-0.22873,,,
1736666364874,,,,,,,,,,,,,,,,0.081921,0.006493,-0.231716,,,
1736666364884,,,,,,,,,,,,,,,,0.082089,0.006239,-0.234204,,,
1736666364893,,,,,,,,,,,,,,,,0.082049,0.006027,-0.237524,,,
1736666364903,,,,,,,,,,,,,,,,0.082164,0.005866,-0.240445,,,
1736666364913,,,,,,,,,,,,,,,,0.08223,0.005576,-0.244128,,,
1736666364923,,,,,,,,,,,,,,,,0.082156,0.005216,-0.247477,,,
1736666364933,,,,,,,,,,,,,,,,0.082252,0.004843,-0.251428,,,
1736666364943,,,,,,,,,,,,,,,,0.082339,0.004514,-0.255088,,,
1736666364953,,,,,,,,,,,,,,,,0.082349,0.004203,-0.258987,,,
1736666364963,,,,,,,,,,,,,,,,0.082402,0.003926,-0.262704,,,
1736666364974,,,,,,,,,,,,,,,,0.082279,0.003619,-0.266636,,,
1736666364984,,,,,,,,,,,,,,,,0.082207,0.003291,-0.270318,,,
1736666364993,,,,,,,,,,,,,,,,0.082167,0.003091,-0.274513,,,
1736666365003,,,,,,,,,,,,,,,,0.082055,0.002911,-0.278489,,,
1736666365013,,,,,,,,,,,,,,,,0.082437,0.002305,-0.282885,,,
1736666365023,,,,,,,,,,,,,,,,0.082701,0.001325,-0.286935,,,
1736666365033,,,,,,,,,,,,,,,,0.083134,7.47E-4,-0.291046,,,
1736666365043,,,,,,,,,,,,,,,,0.08346,5.35E-4,-0.294991,,,
1736666365053,,,,,,,,,,,,,,,,0.083608,3.3E-5,-0.29865,,,
1736666365063,,,,,,,,,,,,,,,,0.083769,-4.03E-4,-0.302212,,,
1736666365073,,,,,,,,,,,,,,,,0.083918,-0.001214,-0.30601,,,
1736666365083,,,,,,,,,,,,,,,,0.084052,-0.002123,-0.309415,,,
1736666365094,,,,,,,,,,,,,,,,0.084306,-0.002482,-0.313299,,,
1736666365105,,,,,,,,,,,,,,,,0.08446,-0.002942,-0.316801,,,
1736666365114,,,,,,,,,,,,,,,,0.084842,-0.003444,-0.320418,,,
1736666365124,,,,,,,,,,,,,,,,0.085108,-0.003681,-0.323887,,,
1736666365134,,,,,,,,,,,,,,,,0.085437,-0.004182,-0.327178,,,
1736666365144,,,,,,,,,,,,,,,,0.085696,-0.004552,-0.330369,,,
1736666365154,,,,,,,,,,,,,,,,0.085723,-0.005089,-0.333305,,,
1736666365164,,,,,,,,,,,,,,,,0.085795,-0.005547,-0.336273,,,
1736666365175,,,,,,,,,,,,,,,,0.085815,-0.006163,-0.338754,,,
1736666365185,,,,,,,,,,,,,,,,0.085782,-0.006798,-0.341345,,,
1736666365195,,,,,,,,,,,,,,,,0.085689,-0.006837,-0.343972,,,
1736666365205,,,,,,,,,,,,,,,,0.085631,-0.007027,-0.346223,,,
1736666365215,,,,,,,,,,,,,,,,0.08556,-0.006893,-0.348841,,,
1736666365225,,,,,,,,,,,,,,,,0.085422,-0.00679,-0.351315,,,
1736666365234,,,,,,,,,,,,,,,,0.085352,-0.006842,-0.353969,,,
1736666365244,,,,,,,,,,,,,,,,0.085426,-0.00677,-0.356462,,,
1736666365254,,,,,,,,,,,,,,,,0.085061,-0.007111,-0.359209,,,
1736666365264,,,,,,,,,,,,,,,,0.084836,-0.007487,-0.361725,,,
1736666365274,,,,,,,,,,,,,,,,0.084425,-0.007534,-0.364483,,,
1736666365284,,,,,,,,,,,,,,,,0.084038,-0.00778,-0.367181,,,
1736666365294,,,,,,,,,,,,,,,,0.083761,-0.008116,-0.369707,,,
1736666365304,,,,,,,,,,,,,,,,0.083486,-0.008308,-0.372238,,,
1736666365314,,,,,,,,,,,,,,,,0.083447,-0.009231,-0.374464,,,
1736666365325,,,,,,,,,,,,,,,,0.083334,-0.009894,-0.376725,,,
1736666365335,,,,,,,,,,,,,,,,0.083563,-0.010212,-0.378898,,,
1736666365345,,,,,,,,,,,,,,,,0.083671,-0.010722,-0.380881,,,
1736666365355,,,,,,,,,,,,,,,,0.083792,-0.01072,-0.383009,,,
1736666365365,,,,,,,,,,,,,,,,0.083992,-0.010691,-0.384926,,,
1736666365375,,,,,,,,,,,,,,,,0.084198,-0.010794,-0.387141,,,
1736666365385,,,,,,,,,,,,,,,,0.084228,-0.010848,-0.38924,,,
1736666365395,,,,,,,,,,,,,,,,0.084391,-0.010906,-0.39155,,,
1736666365405,,,,,,,,,,,,,,,,0.084614,-0.011193,-0.393594,,,
1736666365415,,,,,,,,,,,,,,,,0.084984,-0.012069,-0.395865,,,
1736666365425,,,,,,,,,,,,,,,,0.08513,-0.01231,-0.398098,,,
1736666365435,,,,,,,,,,,,,,,,0.085106,-0.01259,-0.400187,,,
1736666365445,,,,,,,,,,,,,,,,0.085239,-0.01336,-0.402301,,,
1736666365455,,,,,,,,,,,,,,,,0.0851,-0.012947,-0.404194,,,
1736666365465,,,,,,,,,,,,,,,,0.084987,-0.012566,-0.405999,,,
1736666365475,,,,,,,,,,,,,,,,0.084861,-0.012529,-0.407542,,,
1736666365485,,,,,,,,,,,,,,,,0.084792,-0.012061,-0.409159,,,
1736666365495,,,,,,,,,,,,,,,,0.084453,-0.012322,-0.410661,,,
1736666365505,,,,,,,,,,,,,,,,0.084147,-0.012626,-0.412136,,,
1736666365515,,,,,,,,,,,,,,,,0.083685,-0.013087,-0.413702,,,
1736666365525,,,,,,,,,,,,,,,,0.083216,-0.013616,-0.415291,,,
1736666365535,,,,,,,,,,,,,,,,0.082973,-0.013786,-0.416955,,,
1736666365545,,,,,,,,,,,,,,,,0.082609,-0.014021,-0.41839,,,
1736666365556,,,,,,,,,,,,,,,,0.08228,-0.014417,-0.419903,,,
1736666365566,,,,,,,,,,,,,,,,0.082109,-0.014554,-0.421258,,,
1736666365576,,,,,,,,,,,,,,,,0.081885,-0.014893,-0.422698,,,
1736666365586,,,,,,,,,,,,,,,,0.081688,-0.015274,-0.42407,,,
1736666365596,,,,,,,,,,,,,,,,0.081896,-0.015185,-0.425649,,,
1736666365606,,,,,,,,,,,,,,,,0.081929,-0.015327,-0.427026,,,
1736666365617,,,,,,,,,,,,,,,,0.082102,-0.015457,-0.428512,,,
1736666365627,,,,,,,,,,,,,,,,0.082245,-0.015307,-0.429975,,,
1736666365637,,,,,,,,,,,,,,,,0.082556,-0.015586,-0.43152,,,
1736666365647,,,,,,,,,,,,,,,,0.082591,-0.015848,-0.432952,,,
1736666365656,,,,,,,,,,,,,,,,0.083015,-0.01593,-0.434346,,,
1736666365667,,,,,,,,,,,,,,,,0.083324,-0.016106,-0.435796,,,
1736666365676,,,,,,,,,,,,,,,,0.08331,-0.015937,-0.436751,,,
1736666365686,,,,,,,,,,,,,,,,0.083598,-0.015704,-0.437717,,,
1736666365696,,,,,,,,,,,,,,,,0.083079,-0.015535,-0.438827,,,
1736666365706,,,,,,,,,,,,,,,,0.082797,-0.015493,-0.439581,,,
1736666365716,,,,,,,,,,,,,,,,0.082153,-0.015632,-0.440763,,,
1736666365726,,,,,,,,,,,,,,,,0.081562,-0.015703,-0.441951,,,
1736666365736,,,,,,,,,,,,,,,,0.08126,-0.01556,-0.442762,,,
1736666365746,,,,,,,,,,,,,,,,0.080857,-0.015578,-0.44364,,,
1736666365756,,,,,,,,,,,,,,,,0.08049,-0.015578,-0.444265,,,
1736666365766,,,,,,,,,,,,,,,,0.080167,-0.015295,-0.444872,,,
1736666363155,,,,,,,,,,,,,,,,,,,90.0,,
1736666363225,,,,,,,,,,,,,,,,,,,107.0,,
1736666363425,,,,,,,,,,,,,,,,,,,158.0,,
1736666363625,,,,,,,,,,,,,,,,,,,163.0,,
1736666363825,,,,,,,,,,,,,,,,,,,160.0,,
1736666364025,,,,,,,,,,,,,,,,,,,158.0,,
1736666364224,,,,,,,,,,,,,,,,,,,159.0,,
1736666364425,,,,,,,,,,,,,,,,,,,160.0,,
1736666364626,,,,,,,,,,,,,,,,,,,161.0,,
1736666364825,,,,,,,,,,,,,,,,,,,162.0,,
1736666365025,,,,,,,,,,,,,,,,,,,161.0,,
1736666365224,,,,,,,,,,,,,,,,,,,159.0,,
1736666365425,,,,,,,,,,,,,,,,,,,155.0,,
1736666365625,,,,,,,,,,,,,,,,,,,153.0,,
1736666363155,,,,,,,,,,,,,,,,,,,,,0.0
1736666363155,,,,,,,,,,,,,,,,,,,,,0.0
1736666363269,,,,,,,,,,,,,,,,,,,,,5.0
1736666365776,-0.25695002,1.3780501,9.78495,,,,,,,,,,,,,,,,,,
1736666365786,-0.27105,1.3420501,9.76605,,,,,,,,,,,,,,,,,,
1736666365796,-0.303,1.2919501,9.75405,,,,,,,,,,,,,,,,,,
1736666365807,-0.312,1.3230001,9.813001,,,,,,,,,,,,,,,,,,
1736666365817,-0.36195,1.3420501,9.877951,,,,,,,,,,,,,,,,,,
1736666365827,-0.46995002,1.27695,9.98295,,,,,,,,,,,,,,,,,,
1736666365837,-0.41700003,1.3420501,9.406051,,,,,,,,,,,,,,,,,,
1736666365847,-0.37695003,1.5649501,8.785951,,,,,,,,,,,,,,,,,,
1736666365857,-0.25905,1.5480001,9.247951,,,,,,,,,,,,,,,,,,
1736666365867,-0.123,1.31805,9.682051,,,,,,,,,,,,,,,,,,
1736666365877,-0.109050006,1.2220501,9.792001,,,,,,,,,,,,,,,,,,
1736666365887,-0.24495001,1.26495,9.8880005,,,,,,,,,,,,,,,,,,
1736666365897,-0.40095,1.3039501,10.198951,,,,,,,,,,,,,,,,,,
1736666365907,-0.57105005,1.3249501,10.56,,,,,,,,,,,,,,,,,,
1736666365917,-0.67095006,1.299,10.728001,,,,,,,,,,,,,,,,,,
1736666365927,-0.70500004,1.2940501,10.431001,,,,,,,,,,,,,,,,,,
1736666365937,-0.44400004,1.3800001,10.10295,,,,,,,,,,,,,,,,,,
1736666365947,-0.25905,1.3800001,9.877951,,,,,,,,,,,,,,,,,,
1736666365957,-0.22800002,1.2919501,9.61005,,,,,,,,,,,,,,,,,,
1736666365967,-0.23805001,1.296,9.294001,,,,,,,,,,,,,,,,,,
1736666365978,-0.21900001,1.3660501,9.049951,,,,,,,,,,,,,,,,,,
1736666365987,-0.192,1.4620501,8.905951,,,,,,,,,,,,,,,,,,
1736666365997,-0.14895001,1.524,8.877001,,,,,,,,,,,,,,,,,,
1736666366007,-0.08205,1.58595,8.96805,,,,,,,,,,,,,,,,,,
1736666366018,-0.030000001,1.5880501,9.129001,,,,,,,,,,,,,,,,,,
1736666366028,-0.027,1.5499501,9.33495,,,,,,,,,,,,,,,,,,
1736666366038,-0.03195,1.5169501,9.543,,,,,,,,,,,,,,,,,,
1736666366048,-0.075,1.383,9.64605,,,,,,,,,,,,,,,,,,
1736666366058,-0.20895001,1.2600001,9.780001,,,,,,,,,,,,,,,,,,
1736666366068,-0.30495003,1.18605,10.033951,,,,,,,,,,,,,,,,,,
1736666366078,-0.35295,1.1340001,10.194,,,,,,,,,,,,,,,,,,
1736666366088,-0.35805002,1.1020501,10.2640505,,,,,,,,,,,,,,,,,,
1736666366098,-0.36705002,1.0999501,10.31595,,,,,,,,,,,,,,,,,,
1736666366108,-0.39600003,1.1410501,10.321051,,,,,,,,,,,,,,,,,,
1736666366118,-0.37695003,1.22895,10.192051,,,,,,,,,,,,,,,,,,
1736666366128,-0.33405003,1.3249501,10.015051,,,,,,,,,,,,,,,,,,
1736666366139,-0.252,1.4070001,9.837001,,,,,,,,,,,,,,,,,,
1736666366148,-0.22305001,1.43805,9.73005,,,,,,,,,,,,,,,,,,
1736666366158,-0.312,1.4449501,9.636001,,,,,,,,,,,,,,,,,,
1736666366168,-0.35805002,1.4980501,9.550051,,,,,,,,,,,,,,,,,,
1736666366178,-0.32595003,1.50195,9.547951,,,,,,,,,,,,,,,,,,
1736666366188,-0.31395,1.524,9.555,,,,,,,,,,,,,,,,,,
1736666366198,-0.24705002,1.5480001,9.5449505,,,,,,,,,,,,,,,,,,
1736666366208,-0.21195,1.5619501,9.543,,,,,,,,,,,,,,,,,,
1736666366218,-0.24495001,1.5649501,9.538051,,,,,,,,,,,,,,,,,,
1736666366228,-0.29805002,1.5330001,9.543,,,,,,,,,,,,,,,,,,
1736666366238,-0.35805002,1.4419501,9.571951,,,,,,,,,,,,,,,,,,
1736666366248,-0.32205,1.416,9.700951,,,,,,,,,,,,,,,,,,
1736666366258,-0.171,1.46895,9.76605,,,,,,,,,,,,,,,,,,
1736666366269,-0.10605001,1.42095,9.696,,,,,,,,,,,,,,,,,,
1736666366279,-0.10095,1.3990501,9.53295,,,,,,,,,,,,,,,,,,
1736666366289,-0.10095,1.43295,9.47295,,,,,,,,,,,,,,,,,,
1736666366299,-0.14400001,1.4140501,9.4810505,,,,,,,,,,,,,,,,,,
1736666366310,-0.20205002,1.4110501,9.556951,,,,,,,,,,,,,,,,,,
1736666366320,-0.23295002,1.41795,9.648001,,,,,,,,,,,,,,,,,,
1736666366330,-0.252,1.44,9.739051,,,,,,,,,,,,,,,,,,
1736666366339,-0.25500003,1.4830501,9.79695,,,,,,,,,,,,,,,,,,
1736666366349,-0.264,1.5259501,9.84,,,,,,,,,,,,,,,,,,
1736666366359,-0.31905,1.55295,9.924001,,,,,,,,,,,,,,,,,,
1736666366369,-0.33105,1.5259501,9.969001,,,,,,,,,,,,,,,,,,
1736666366379,-0.35505003,1.5499501,9.97605,,,,,,,,,,,,,,,,,,
1736666366389,-0.35805002,1.5450001,9.967051,,,,,,,,,,,,,,,,,,
1736666366400,-0.37395,1.5499501,9.897,,,,,,,,,,,,,,,,,,
1736666366410,-0.33795002,1.5310501,9.78705,,,,,,,,,,,,,,,,,,
1736666366419,-0.27405003,1.5120001,9.684,,,,,,,,,,,,,,,,,,
1736666366429,-0.20700002,1.4779501,9.588,,,,,,,,,,,,,,,,,,
1736666366439,-0.18,1.47105,9.5119505,,,,,,,,,,,,,,,,,,
1736666366449,-0.231,1.4470501,9.46905,,,,,,,,,,,,,,,,,,
1736666366459,-0.24705002,1.536,9.4810505,,,,,,,,,,,,,,,,,,
1736666366469,-0.11595,1.6530001,9.517051,,,,,,,,,,,,,,,,,,
1736666366479,-0.05595,1.6170001,9.459001,,,,,,,,,,,,,,,,,,
1736666366490,-0.03195,1.557,9.39,,,,,,,,,,,,,,,,,,
1736666366499,-0.03195,1.5409501,9.373051,,,,,,,,,,,,,,,,,,
1736666366510,-0.03195,1.5600001,9.363001,,,,,,,,,,,,,,,,,,
1736666366520,-0.135,1.6150501,9.39,,,,,,,,,,,,,,,,,,
1736666366530,-0.23505001,1.59105,9.47595,,,,,,,,,,,,,,,,,,
1736666366540,-0.24705002,1.53795,9.62895,,,,,,,,,,,,,,,,,,
1736666366550,-0.22800002,1.452,9.77805,,,,,,,,,,,,,,,,,,
1736666366560,-0.18,1.3660501,9.852,,,,,,,,,,,,,,,,,,
1736666366570,-0.147,1.31805,9.832951,,,,,,,,,,,,,,,,,,
1736666366580,-0.171,1.3080001,9.847051,,,,,,,,,,,,,,,,,,
1736666366590,-0.23505001,1.3590001,9.868951,,,,,,,,,,,,,,,,,,
1736666366600,-0.3,1.4070001,9.885,,,,,,,,,,,,,,,,,,
1736666366610,-0.372,1.4500501,9.904051,,,,,,,,,,,,,,,,,,
1736666366620,-0.38595003,1.47105,9.897,,,,,,,,,,,,,,,,,,
1736666366631,-0.34800002,1.4830501,9.864,,,,,,,,,,,,,,,,,,
1736666366640,-0.32205,1.524,9.844951,,,,,,,,,,,,,,,,,,
1736666366650,-0.3,1.5670501,9.81795,,,,,,,,,,,,,,,,,,
1736666366660,-0.26700002,1.5810001,9.780001,,,,,,,,,,,,,,,,,,
1736666366670,-0.28800002,1.5840001,9.76095,,,,,,,,,,,,,,,,,,
1736666366680,-0.35295,1.5499501,9.76305,,,,,,,,,,,,,,,,,,
1736666366690,-0.38895002,1.5090001,9.75105,,,,,,,,,,,,,,,,,,
1736666366700,-0.36495003,1.5169501,9.73005,,,,,,,,,,,,,,,,,,
1736666366710,-0.3,1.5090001,9.72,,,,,,,,,,,,,,,,,,
1736666366720,-0.25695002,1.4809501,9.66705,,,,,,,,,,,,,,,,,,
1736666366730,-0.20700002,1.4950501,9.571951,,,,,,,,,,,,,,,,,,
1736666366741,-0.18495001,1.4860501,9.493051,,,,,,,,,,,,,,,,,,
1736666366751,-0.17595,1.46895,9.44505,,,,,,,,,,,,,,,,,,
1736666366761,-0.15195,1.43295,9.426001,,,,,,,,,,,,,,,,,,
1736666366771,-0.14400001,1.3950001,9.50895,,,,,,,,,,,,,,,,,,
1736666366781,-0.22095,1.3560001,9.63405,,,,,,,,,,,,,,,,,,
1736666366791,-0.31905,1.3590001,9.75405,,,,,,,,,,,,,,,,,,
1736666366802,-0.37005,1.3590001,9.835051,,,,,,,,,,,,,,,,,,
1736666366812,-0.32595003,1.3630501,9.856951,,,,,,,,,,,,,,,,,,
1736666366822,-0.279,1.41795,9.865951,,,,,,,,,,,,,,,,,,
1736666366832,-0.312,1.4760001,9.849001,,,,,,,,,,,,,,,,,,
1736666366841,-0.35505003,1.54305,9.84,,,,,,,,,,,,,,,,,,
1736666366851,-0.36,1.59105,9.835051,,,,,,,,,,,,,,,,,,
1736666366861,-0.32595003,1.55505,9.77295,,,,,,,,,,,,,,,,,,
1736666366871,-0.26895002,1.4760001,9.67695,,,,,,,,,,,,,,,,,,
1736666366882,-0.24300002,1.4070001,9.615001,,,,,,,,,,,,,,,,,,
1736666366892,-0.29505002,1.404,9.547951,,,,,,,,,,,,,,,,,,
1736666366901,-0.33405003,1.43505,9.564,,,,,,,,,,,,,,,,,,
1736666366911,-0.31395,1.4860501,9.63405,,,,,,,,,,,,,,,,,,
1736666366921,-0.25005,1.524,9.703051,,,,,,,,,,,,,,,,,,
1736666366931,-0.22095,1.4860501,9.74205,,,,,,,,,,,,,,,,,,
1736666366942,-0.17295001,1.41795,9.715051,,,,,,,,,,,,,,,,,,
1736666366952,-0.18300001,1.3800001,9.694051,,,,,,,,,,,,,,,,,,
1736666366961,-0.24300002,1.416,9.699,,,,,,,,,,,,,,,,,,
1736666366973,-0.28305,1.4899501,9.72,,,,,,,,,,,,,,,,,,
1736666366983,-0.28800002,1.5649501,9.733951,,,,,,,,,,,,,,,,,,
1736666366993,-0.279,1.62705,9.72,,,,,,,,,,,,,,,,,,
1736666367003,-0.231,1.6510501,9.672001,,,,,,,,,,,,,,,,,,
1736666367013,-0.23805001,1.6170001,9.639001,,,,,,,,,,,,,,,,,,
1736666367022,-0.24495001,1.572,9.592951,,,,,,,,,,,,,,,,,,
1736666367032,-0.279,1.557,9.550051,,,,,,,,,,,,,,,,,,
1736666367042,-0.25005,1.5190501,9.568951,,,,,,,,,,,,,,,,,,
1736666367052,-0.20205002,1.488,9.59805,,,,,,,,,,,,,,,,,,
1736666367062,-0.15405001,1.43505,9.588,,,,,,,,,,,,,,,,,,
1736666367072,-0.17595,1.4299501,9.567,,,,,,,,,,,,,,,,,,
1736666367082,-0.21900001,1.4500501,9.592951,,,,,,,,,,,,,,,,,,
1736666367093,-0.28800002,1.45905,9.651,,,,,,,,,,,,,,,,,,
1736666367102,-0.324,1.4569501,9.72,,,,,,,,,,,,,,,,,,
1736666367112,-0.28095,1.4280001,9.78195,,,,,,,,,,,,,,,,,,
1736666367123,-0.23295002,1.42305,9.80595,,,,,,,,,,,,,,,,,,
1736666367133,-0.17595,1.4070001,9.80595,,,,,,,,,,,,,,,,,,
1736666367142,-0.13305001,1.44,9.715051,,,,,,,,,,,,,,,,,,
1736666367152,-0.14205001,1.4899501,9.64605,,,,,,,,,,,,,,,,,,
1736666367162,-0.19500001,1.5330001,9.64095,,,,,,,,,,,,,,,,,,
1736666367172,-0.28305,1.5480001,9.639001,,,,,,,,,,,,,,,,,,
1736666367182,-0.29805002,1.5409501,9.62895,,,,,,,,,,,,,,,,,,
1736666367192,-0.231,1.5090001,9.627001,,,,,,,,,,,,,,,,,,
1736666367203,-0.13995,1.4830501,9.648001,,,,,,,,,,,,,,,,,,
1736666367213,-0.14205001,1.4929501,9.63105,,,,,,,,,,,,,,,,,,
1736666367223,-0.24000001,1.5169501,9.588,,,,,,,,,,,,,,,,,,
1736666367233,-0.28605002,1.55505,9.592951,,,,,,,,,,,,,,,,,,
1736666367244,-0.31905,1.6000501,9.67695,,,,,,,,,,,,,,,,,,
1736666367254,-0.28305,1.5960001,9.81105,,,,,,,,,,,,,,,,,,
1736666367263,-0.231,1.5139501,9.876,,,,,,,,,,,,,,,,,,
1736666367273,-0.20205002,1.46895,9.900001,,,,,,,,,,,,,,,,,,
1736666367283,-0.25005,1.44,9.885,,,,,,,,,,,,,,,,,,
1736666367293,-0.312,1.42305,9.828,,,,,,,,,,,,,,,,,,
1736666367303,-0.32895002,1.4419501,9.81105,,,,,,,,,,,,,,,,,,
1736666367313,-0.279,1.47405,9.813001,,,,,,,,,,,,,,,,,,
1736666367323,-0.24000001,1.4980501,9.79695,,,,,,,,,,,,,,,,,,
1736666367333,-0.19500001,1.5289501,9.724951,,,,,,,,,,,,,,,,,,
1736666367343,-0.20895001,1.5670501,9.660001,,,,,,,,,,,,,,,,,,
1736666367353,-0.26700002,1.5289501,9.60795,,,,,,,,,,,,,,,,,,
1736666367363,-0.27600002,1.5190501,9.574051,,,,,,,,,,,,,,,,,,
1736666367373,-0.29295,1.5169501,9.576,,,,,,,,,,,,,,,,,,
1736666367383,-0.24495001,1.4929501,9.6,,,,,,,,,,,,,,,,,,
1736666367393,-0.22095,1.4899501,9.61905,,,,,,,,,,,,,,,,,,
1736666367403,-0.22305001,1.4860501,9.660001,,,,,,,,,,,,,,,,,,
1736666367413,-0.22800002,1.4620501,9.663,,,,,,,,,,,,,,,,,,
1736666367423,-0.23505001,1.44,9.70995,,,,,,,,,,,,,,,,,,
1736666367434,-0.25500003,1.4419501,9.74895,,,,,,,,,,,,,,,,,,
1736666367444,-0.23505001,1.4140501,9.744,,,,,,,,,,,,,,,,,,
1736666367454,-0.20895001,1.3920001,9.74895,,,,,,,,,,,,,,,,,,
1736666367464,-0.20700002,1.3990501,9.74895,,,,,,,,,,,,,,,,,,
1736666367474,-0.24705002,1.40205,9.721951,,,,,,,,,,,,,,,,,,
1736666367484,-0.30705002,1.4089501,9.71805,,,,,,,,,,,,,,,,,,
1736666367494,-0.27405003,1.5169501,9.745951,,,,,,,,,,,,,,,,,,
1736666367505,-0.25905,1.54305,9.745951,,,,,,,,,,,,,,,,,,
1736666367515,-0.31005,1.5120001,9.670051,,,,,,,,,,,,,,,,,,
1736666367524,-0.28605002,1.50495,9.615001,,,,,,,,,,,,,,,,,,
1736666367534,-0.23295002,1.4640001,9.62895,,,,,,,,,,,,,,,,,,
1736666367544,-0.21195,1.4280001,9.660001,,,,,,,,,,,,,,,,,,
1736666367554,-0.24300002,1.4260501,9.684,,,,,,,,,,,,,,,,,,
1736666367565,-0.29295,1.452,9.727051,,,,,,,,,,,,,,,,,,
1736666367575,-0.312,1.5259501,9.76305,,,,,,,,,,,,,,,,,,
1736666367585,-0.324,1.536,9.769951,,,,,,,,,,,,,,,,,,
1736666367595,-0.28605002,1.5259501,9.739051,,,,,,,,,,,,,,,,,,
1736666367604,-0.25905,1.5120001,9.682051,,,,,,,,,,,,,,,,,,
1736666367614,-0.23505001,1.4899501,9.624001,,,,,,,,,,,,,,,,,,
1736666367624,-0.216,1.416,9.61005,,,,,,,,,,,,,,,,,,
1736666367634,-0.23505001,1.3920001,9.65295,,,,,,,,,,,,,,,,,,
1736666367644,-0.25905,1.42095,9.63405,,,,,,,,,,,,,,,,,,
1736666367655,-0.25005,1.4830501,9.571951,,,,,,,,,,,,,,,,,,
1736666367664,-0.19995001,1.4950501,9.519,,,,,,,,,,,,,,,,,,
1736666367675,-0.17805001,1.4779501,9.535951,,,,,,,,,,,,,,,,,,
1736666367686,-0.192,1.4089501,9.562051,,,,,,,,,,,,,,,,,,
1736666367696,-0.192,1.3470001,9.60795,,,,,,,,,,,,,,,,,,
1736666367705,-0.23295002,1.3420501,9.724951,,,,,,,,,,,,,,,,,,
1736666367715,-0.28605002,1.371,9.813001,,,,,,,,,,,,,,,,,,
1736666367725,-0.312,1.44,9.8539505,,,,,,,,,,,,,,,,,,
1736666367735,-0.35295,1.5259501,9.885,,,,,,,,,,,,,,,,,,
1736666367745,-0.35505003,1.5690001,9.912001,,,,,,,,,,,,,,,,,,
1736666367755,-0.35505003,1.5960001,9.948001,,,,,,,,,,,,,,,,,,
1736666367765,-0.324,1.5649501,9.889951,,,,,,,,,,,,,,,,,,
1736666367775,-0.279,1.521,9.78195,,,,,,,,,,,,,,,,,,
1736666367785,-0.20895001,1.45905,9.660001,,,,,,,,,,,,,,,,,,
1736666367795,-0.20205002,1.43805,9.63105,,,,,,,,,,,,,,,,,,
1736666367805,-0.23295002,1.4110501,9.580951,,,,,,,,,,,,,,,,,,
1736666367815,-0.22800002,1.40205,9.59595,,,,,,,,,,,,,,,,,,
1736666367825,-0.21900001,1.38705,9.64095,,,,,,,,,,,,,,,,,,
1736666367835,-0.20205002,1.3920001,9.67695,,,,,,,,,,,,,,,,,,
1736666367845,-0.21195,1.39005,9.699,,,,,,,,,,,,,,,,,,
1736666367855,-0.252,1.383,9.691051,,,,,,,,,,,,,,,,,,
1736666367865,-0.25905,1.3950001,9.67905,,,,,,,,,,,,,,,,,,
1736666367875,-0.27105,1.4260501,9.658051,,,,,,,,,,,,,,,,,,
1736666367885,-0.28095,1.4500501,9.627001,,,,,,,,,,,,,,,,,,
1736666367895,-0.21195,1.46595,9.588,,,,,,,,,,,,,,,,,,
1736666367906,-0.19500001,1.47405,9.591001,,,,,,,,,,,,,,,,,,
1736666367916,-0.23295002,1.47105,9.555,,,,,,,,,,,,,,,,,,
1736666367926,-0.26895002,1.4569501,9.53295,,,,,,,,,,,,,,,,,,
1736666367936,-0.312,1.43295,9.568951,,,,,,,,,,,,,,,,,,
1736666367946,-0.33600003,1.416,9.576,,,,,,,,,,,,,,,,,,
1736666367956,-0.28605002,1.3920001,9.60795,,,,,,,,,,,,,,,,,,
1736666367966,-0.192,1.383,9.688951,,,,,,,,,,,,,,,,,,
1736666367976,-0.20400001,1.3750501,9.76095,,,,,,,,,,,,,,,,,,
1736666367986,-0.22095,1.371,9.79905,,,,,,,,,,,,,,,,,,
1736666367996,-0.28305,1.38705,9.79395,,,,,,,,,,,,,,,,,,
1736666368006,-0.32895002,1.3660501,9.792001,,,,,,,,,,,,,,,,,,
1736666368016,-0.29805002,1.3800001,9.837001,,,,,,,,,,,,,,,,,,
1736666368026,-0.28605002,1.35105,9.892051,,,,,,,,,,,,,,,,,,
1736666368036,-0.28800002,1.3420501,9.95505,,,,,,,,,,,,,,,,,,
1736666368047,-0.279,1.3300501,9.97095,,,,,,,,,,,,,,,,,,
1736666368057,-0.27600002,1.33905,9.969001,,,,,,,,,,,,,,,,,,
1736666368067,-0.27105,1.371,9.904051,,,,,,,,,,,,,,,,,,
1736666368076,-0.26205,1.4140501,9.81795,,,,,,,,,,,,,,,,,,
1736666368086,-0.27600002,1.43805,9.745951,,,,,,,,,,,,,,,,,,
1736666368096,-0.25500003,1.46895,9.682051,,,,,,,,,,,,,,,,,,
1736666368106,-0.25005,1.488,9.62895,,,,,,,,,,,,,,,,,,
1736666368116,-0.28800002,1.4779501,9.535951,,,,,,,,,,,,,,,,,,
1736666368126,-0.32205,1.4929501,9.50205,,,,,,,,,,,,,,,,,,
1736666368137,-0.30495003,1.488,9.547951,,,,,,,,,,,,,,,,,,
1736666368147,-0.26895002,1.4950501,9.571951,,,,,,,,,,,,,,,,,,
1736666368157,-0.19005,1.4980501,9.576,,,,,,,,,,,,,,,,,,
1736666368167,-0.20205002,1.4779501,9.5140505,,,,,,,,,,,,,,,,,,
1736666368177,-0.22800002,1.4760001,9.50205,,,,,,,,,,,,,,,,,,
1736666368187,-0.28305,1.4809501,9.5449505,,,,,,,,,,,,,,,,,,
1736666368197,-0.35805002,1.4640001,9.62205,,,,,,,,,,,,,,,,,,
1736666368207,-0.34095,1.4110501,9.703051,,,,,,,,,,,,,,,,,,
1736666368217,-0.28605002,1.3470001,9.78195,,,,,,,,,,,,,,,,,,
1736666368228,-0.23805001,1.2750001,9.84195,,,,,,,,,,,,,,,,,,
1736666368238,-0.22095,1.2390001,9.861,,,,,,,,,,,,,,,,,,
1736666368247,-0.22605,1.2409501,9.904051,,,,,,,,,,,,,,,,,,
1736666368257,-0.22095,1.28205,9.877951,,,,,,,,,,,,,,,,,,
1736666368267,-0.25905,1.3300501,9.81795,,,,,,,,,,,,,,,,,,
1736666368277,-0.25695002,1.3780501,9.732,,,,,,,,,,,,,,,,,,
1736666368288,-0.27405003,1.4140501,9.65505,,,,,,,,,,,,,,,,,,
1736666368298,-0.27600002,1.4569501,9.604951,,,,,,,,,,,,,,,,,,
1736666368307,-0.29295,1.4449501,9.615001,,,,,,,,,,,,,,,,,,
1736666368317,-0.33405003,1.42305,9.60795,,,,,,,,,,,,,,,,,,
1736666368327,-0.27600002,1.45905,9.639001,,,,,,,,,,,,,,,,,,
1736666368337,-0.20895001,1.488,9.682051,,,,,,,,,,,,,,,,,,
1736666368347,-0.20700002,1.4569501,9.682051,,,,,,,,,,,,,,,,,,
1736666368357,-0.216,1.42305,9.65295,,,,,,,,,,,,,,,,,,
1736666368368,-0.24000001,1.3950001,9.651,,,,,,,,,,,,,,,,,,
1736666368378,-0.33600003,1.3630501,9.703051,,,,,,,,,,,,,,,,,,
1736666368388,-0.35295,1.3440001,9.78495,,,,,,,,,,,,,,,,,,
1736666368398,-0.31695002,1.335,9.847051,,,,,,,,,,,,,,,,,,
1736666368408,-0.26700002,1.3440001,9.828,,,,,,,,,,,,,,,,,,
1736666368418,-0.22305001,1.3470001,9.769951,,,,,,,,,,,,,,,,,,
1736666368428,-0.20205002,1.3660501,9.703051,,,,,,,,,,,,,,,,,,
1736666368438,-0.25005,1.3609501,9.651,,,,,,,,,,,,,,,,,,
1736666368448,-0.25905,1.332,9.639001,,,,,,,,,,,,,,,,,,
1736666368459,-0.26895002,1.3470001,9.672001,,,,,,,,,,,,,,,,,,
1736666368469,-0.26700002,1.383,9.672001,,,,,,,,,,,,,,,,,,
1736666368479,-0.252,1.4419501,9.612,,,,,,,,,,,,,,,,,,
1736666368488,-0.32205,1.46895,9.571951,,,,,,,,,,,,,,,,,,
1736666368498,-0.35295,1.47105,9.571951,,,,,,,,,,,,,,,,,,
1736666368508,-0.36705002,1.4640001,9.687,,,,,,,,,,,,,,,,,,
1736666368518,-0.31905,1.4419501,9.885,,,,,,,,,,,,,,,,,,
1736666368528,-0.24705002,1.3440001,9.97395,,,,,,,,,,,,,,,,,,
1736666368538,-0.16395001,1.22895,9.912001,,,,,,,,,,,,,,,,,,
1736666368548,-0.14400001,1.1770501,9.816001,,,,,,,,,,,,,,,,,,
1736666368558,-0.20205002,1.215,9.792001,,,,,,,,,,,,,,,,,,
1736666368568,-0.303,1.26795,9.71805,,,,,,,,,,,,,,,,,,
1736666368578,-0.31005,1.31805,9.708,,,,,,,,,,,,,,,,,,
1736666368588,-0.324,1.3750501,9.73005,,,,,,,,,,,,,,,,,,
1736666368599,-0.32205,1.3660501,9.77295,,,,,,,,,,,,,,,,,,
1736666368610,-0.28305,1.3230001,9.816001,,,,,,,,,,,,,,,,,,
1736666368620,-0.22305001,1.2870001,9.8539505,,,,,,,,,,,,,,,,,,
1736666368629,-0.20895001,1.2750001,9.8209505,,,,,,,,,,,,,,,,,,
1736666368639,-0.24000001,1.27005,9.76305,,,,,,,,,,,,,,,,,,
1736666368649,-0.264,1.3060501,9.745951,,,,,,,,,,,,,,,,,,
1736666368659,-0.279,1.3660501,9.75405,,,,,,,,,,,,,,,,,,
1736666368669,-0.28095,1.368,9.76095,,,,,,,,,,,,,,,,,,
1736666368679,-0.25905,1.33905,9.706051,,,,,,,,,,,,,,,,,,
1736666368689,-0.26895002,1.3420501,9.64305,,,,,,,,,,,,,,,,,,
1736666368699,-0.34095,1.3660501,9.64305,,,,,,,,,,,,,,,,,,
1736666368709,-0.324,1.371,9.64605,,,,,,,,,,,,,,,,,,
1736666368719,-0.29505002,1.371,9.64605,,,,,,,,,,,,,,,,,,
1736666368729,-0.25905,1.38495,9.64095,,,,,,,,,,,,,,,,,,
1736666368739,-0.231,1.38495,9.592951,,,,,,,,,,,,,,,,,,
1736666368749,-0.28605002,1.3560001,9.526051,,,,,,,,,,,,,,,,,,
1736666368759,-0.31005,1.371,9.571951,,,,,,,,,,,,,,,,,,
1736666368770,-0.192,1.5480001,9.65295,,,,,,,,,,,,,,,,,,
1736666368780,-0.21900001,1.4950501,9.555,,,,,,,,,,,,,,,,,,
1736666365797,,,,-10.012501,5.64375,-23.8125,,,,,,,,,,,,,,,
1736666365817,,,,-9.84375,5.64375,-23.94375,,,,,,,,,,,,,,,
1736666365838,,,,-10.200001,5.64375,-23.94375,,,,,,,,,,,,,,,
1736666365858,,,,-10.200001,5.15625,-24.112501,,,,,,,,,,,,,,,
1736666365879,,,,-10.012501,5.34375,-23.643751,,,,,,,,,,,,,,,
1736666365899,,,,-10.200001,5.1000004,-23.643751,,,,,,,,,,,,,,,
1736666365918,,,,-9.95625,5.34375,-23.643751,,,,,,,,,,,,,,,
1736666365939,,,,-9.900001,5.5125003,-23.643751,,,,,,,,,,,,,,,
1736666365959,,,,-9.6,5.45625,-23.8125,,,,,,,,,,,,,,,
1736666365979,,,,-9.543751,5.45625,-24.243752,,,,,,,,,,,,,,,
1736666365998,,,,-9.543751,5.15625,-24.4125,,,,,,,,,,,,,,,
1736666366018,,,,-9.84375,5.2125,-24.656252,,,,,,,,,,,,,,,
1736666366038,,,,-9.900001,5.15625,-25.25625,,,,,,,,,,,,,,,
1736666366058,,,,-10.200001,5.2125,-25.2,,,,,,,,,,,,,,,
1736666366079,,,,-10.25625,5.15625,-25.9125,,,,,,,,,,,,,,,
1736666366099,,,,-10.25625,5.1000004,-26.400002,,,,,,,,,,,,,,,
1736666366119,,,,-10.25625,4.9125004,-26.5125,,,,,,,,,,,,,,,
1736666366139,,,,-10.200001,4.55625,-26.812502,,,,,,,,,,,,,,,
1736666366159,,,,-10.14375,4.6125,-26.812502,,,,,,,,,,,,,,,
1736666366177,,,,-10.200001,4.5,-27.243752,,,,,,,,,,,,,,,
1736666366197,,,,-10.5,4.2562504,-27.35625,,,,,,,,,,,,,,,
1736666366218,,,,-10.556251,4.2000003,-27.6,,,,,,,,,,,,,,,
1736666366238,,,,-10.3125,3.8437502,-27.54375,,,,,,,,,,,,,,,
1736666366258,,,,-10.200001,3.3000002,-27.656252,,,,,,,,,,,,,,,
1736666366278,,,,-9.95625,3.35625,-27.843752,,,,,,,,,,,,,,,
1736666366298,,,,-9.900001,3.35625,-28.143751,,,,,,,,,,,,,,,
1736666366318,,,,-10.200001,3.3000002,-28.556252,,,,,,,,,,,,,,,
1736666366338,,,,-10.012501,3.35625,-28.612501,,,,,,,,,,,,,,,
1736666366358,,,,-10.3125,3.1125002,-28.556252,,,,,,,,,,,,,,,
1736666366379,,,,-10.3125,3.24375,-28.556252,,,,,,,,,,,,,,,
1736666366398,,,,-10.25625,2.7562501,-28.612501,,,,,,,,,,,,,,,
1736666366419,,,,-10.3125,2.7,-28.25625,,,,,,,,,,,,,,,
1736666366438,,,,-10.856251,2.5125,-28.556252,,,,,,,,,,,,,,,
1736666366458,,,,-10.856251,1.9125,-28.743752,,,,,,,,,,,,,,,
1736666366478,,,,-11.043751,1.8000001,-28.800001,,,,,,,,,,,,,,,
1736666366498,,,,-11.212501,1.5562501,-28.800001,,,,,,,,,,,,,,,
1736666366518,,,,-10.9125,1.5,-28.743752,,,,,,,,,,,,,,,
1736666366538,,,,-11.212501,1.5,-28.312502,,,,,,,,,,,,,,,
1736666366558,,,,-11.64375,1.5,-28.2,,,,,,,,,,,,,,,
1736666366578,,,,-11.8125,1.25625,-28.500002,,,,,,,,,,,,,,,
1736666366598,,,,-12.056251,1.2,-27.956251,,,,,,,,,,,,,,,
1736666366618,,,,-12.3,1.1437501,-28.44375,,,,,,,,,,,,,,,
1736666366638,,,,-12.543751,1.0125,-28.0125,,,,,,,,,,,,,,,
1736666366658,,,,-12.95625,0.90000004,-27.6,,,,,,,,,,,,,,,
1736666366679,,,,-13.200001,0.35625002,-27.843752,,,,,,,,,,,,,,,
1736666366698,,,,-13.44375,0.112500004,-27.112501,,,,,,,,,,,,,,,
1736666366719,,,,-13.25625,0.056250002,-27.300001,,,,,,,,,,,,,,,
1736666366738,,,,-13.44375,0.0,-27.54375,,,,,,,,,,,,,,,
1736666366759,,,,-13.500001,0.0,-27.112501,,,,,,,,,,,,,,,
1736666366778,,,,-13.14375,-0.1875,-27.243752,,,,,,,,,,,,,,,
1736666366798,,,,-13.312501,-0.35625002,-27.056252,,,,,,,,,,,,,,,
1736666366819,,,,-13.14375,-0.35625002,-26.75625,,,,,,,,,,,,,,,
1736666366838,,,,-13.25625,-0.4875,-27.056252,,,,,,,,,,,,,,,
1736666366858,,,,-13.6125,-0.6,-26.5125,,,,,,,,,,,,,,,
1736666366878,,,,-13.500001,-0.54375005,-26.156252,,,,,,,,,,,,,,,
1736666366898,,,,-13.743751,-0.65625,-26.156252,,,,,,,,,,,,,,,
1736666366918,,,,-13.743751,-0.7875,-26.343752,,,,,,,,,,,,,,,
1736666366938,,,,-14.043751,-0.90000004,-26.5125,,,,,,,,,,,,,,,
1736666366959,,,,-14.1,-1.2,-26.75625,,,,,,,,,,,,,,,
1736666366978,,,,-14.400001,-1.44375,-27.056252,,,,,,,,,,,,,,,
1736666366998,,,,-14.343751,-1.7437501,-26.75625,,,,,,,,,,,,,,,
1736666367019,,,,-14.1,-1.6875001,-26.7,,,,,,,,,,,,,,,
1736666367039,,,,-14.45625,-1.8000001,-26.400002,,,,,,,,,,,,,,,
1736666367058,,,,-14.212501,-1.8000001,-26.156252,,,,,,,,,,,,,,,
1736666367078,,,,-14.343751,-1.8000001,-26.04375,,,,,,,,,,,,,,,
1736666367099,,,,-14.1,-1.9875001,-26.343752,,,,,,,,,,,,,,,
1736666367118,,,,-13.856251,-1.85625,-26.456251,,,,,,,,,,,,,,,
1736666367138,,,,-14.043751,-1.9875001,-26.456251,,,,,,,,,,,,,,,
1736666367159,,,,-13.856251,-1.7437501,-26.94375,,,,,,,,,,,,,,,
1736666367178,,,,-13.856251,-1.8000001,-26.643751,,,,,,,,,,,,,,,
1736666367199,,,,-13.743751,-1.9875001,-26.643751,,,,,,,,,,,,,,,
1736666367218,,,,-13.556251,-2.04375,-26.812502,,,,,,,,,,,,,,,
1736666367239,,,,-13.500001,-2.34375,-26.7,,,,,,,,,,,,,,,
1736666367258,,,,-13.312501,-2.04375,-27.243752,,,,,,,,,,,,,,,
1736666367279,,,,-13.012501,-1.8000001,-27.35625,,,,,,,,,,,,,,,
1736666367298,,,,-12.6,-1.6875001,-27.112501,,,,,,,,,,,,,,,
1736666367318,,,,-12.4125,-1.44375,-27.243752,,,,,,,,,,,,,,,
1736666367338,,,,-12.543751,-1.5562501,-27.243752,,,,,,,,,,,,,,,
1736666367358,,,,-12.843751,-1.6875001,-27.300001,,,,,,,,,,,,,,,
1736666367378,,,,-12.543751,-1.6875001,-27.900002,,,,,,,,,,,,,,,
1736666367399,,,,-12.543751,-1.5562501,-28.2,,,,,,,,,,,,,,,
1736666367418,,,,-12.243751,-1.3875,-28.25625,,,,,,,,,,,,,,,
1736666367438,,,,-11.75625,-1.1437501,-28.2,,,,,,,,,,,,,,,
1736666367458,,,,-11.75625,-0.90000004,-27.956251,,,,,,,,,,,,,,,
1736666367479,,,,-11.34375,-1.1437501,-27.54375,,,,,,,,,,,,,,,
1736666367498,,,,-10.9125,-1.1437501,-27.35625,,,,,,,,,,,,,,,
1736666367518,,,,-10.6125,-1.0875001,-27.843752,,,,,,,,,,,,,,,
1736666367539,,,,-10.5,-1.1437501,-27.843752,,,,,,,,,,,,,,,
1736666367559,,,,-10.5,-0.65625,-28.312502,,,,,,,,,,,,,,,
1736666367578,,,,-10.856251,-0.65625,-28.612501,,,,,,,,,,,,,,,
1736666367598,,,,-11.1,-0.54375005,-28.500002,,,,,,,,,,,,,,,
1736666367618,,,,-10.9125,-0.3,-28.612501,,,,,,,,,,,,,,,
1736666367638,,,,-11.400001,-0.6,-28.500002,,,,,,,,,,,,,,,
1736666367658,,,,-11.043751,-0.4875,-28.25625,,,,,,,,,,,,,,,
1736666367679,,,,-10.14375,-0.4875,-28.0125,,,,,,,,,,,,,,,
1736666367698,,,,-9.84375,-0.056250002,-28.312502,,,,,,,,,,,,,,,
1736666367719,,,,-8.8125,0.6,-28.556252,,,,,,,,,,,,,,,
1736666367739,,,,-8.64375,0.54375005,-28.85625,,,,,,,,,,,,,,,
1736666367759,,,,-9.056251,0.84375006,-29.400002,,,,,,,,,,,,,,,
1736666367779,,,,-8.8125,0.84375006,-29.212502,,,,,,,,,,,,,,,
1736666367799,,,,-9.0,0.71250004,-29.156252,,,,,,,,,,,,,,,
1736666367817,,,,-8.700001,1.25625,-29.343752,,,,,,,,,,,,,,,
1736666367838,,,,-8.34375,1.5562501,-29.212502,,,,,,,,,,,,,,,
1736666367858,,,,-8.212501,1.6125001,-29.212502,,,,,,,,,,,,,,,
1736666367877,,,,-7.74375,2.15625,-29.456251,,,,,,,,,,,,,,,
1736666367897,,,,-7.8562503,2.6437502,-29.343752,,,,,,,,,,,,,,,
1736666367918,,,,-7.6125,3.05625,-29.643751,,,,,,,,,,,,,,,
1736666367937,,,,-7.3125005,3.54375,-29.7,,,,,,,,,,,,,,,
1736666367957,,,,-7.2000003,3.6000001,-29.400002,,,,,,,,,,,,,,,
1736666367977,,,,-6.6000004,3.7125,-29.456251,,,,,,,,,,,,,,,
1736666367997,,,,-6.3,3.7125,-29.1,,,,,,,,,,,,,,,
1736666368017,,,,-6.6562505,3.9,-29.04375,,,,,,,,,,,,,,,
1736666368037,,,,-6.3,4.3125,-29.212502,,,,,,,,,,,,,,,
1736666368058,,,,-6.3562503,4.4437504,-29.400002,,,,,,,,,,,,,,,
1736666368078,,,,-6.3,4.8562503,-29.812502,,,,,,,,,,,,,,,
1736666368098,,,,-6.0,4.8562503,-29.94375,,,,,,,,,,,,,,,
1736666368117,,,,-6.3,4.6125,-30.056252,,,,,,,,,,,,,,,
1736666368137,,,,-5.9437504,5.0437503,-29.94375,,,,,,,,,,,,,,,
1736666368157,,,,-6.3,4.4437504,-30.000002,,,,,,,,,,,,,,,
1736666368177,,,,-6.0,4.55625,-30.112501,,,,,,,,,,,,,,,
1736666368197,,,,-6.0,4.6125,-30.112501,,,,,,,,,,,,,,,
1736666368218,,,,-6.3562503,4.14375,-30.35625,,,,,,,,,,,,,,,
1736666368238,,,,-6.3,4.2000003,-30.300001,,,,,,,,,,,,,,,
1736666368258,,,,-6.3562503,4.2562504,-30.243752,,,,,,,,,,,,,,,
1736666368278,,,,-6.24375,4.2562504,-30.300001,,,,,,,,,,,,,,,
1736666368299,,,,-6.4125004,4.14375,-30.300001,,,,,,,,,,,,,,,
1736666368318,,,,-6.3,3.9562502,-30.54375,,,,,,,,,,,,,,,
1736666368338,,,,-6.3,3.7125,-30.4125,,,,,,,,,,,,,,,
1736666368359,,,,-6.3,3.6000001,-30.54375,,,,,,,,,,,,,,,
1736666368378,,,,-6.05625,3.6000001,-30.6,,,,,,,,,,,,,,,
1736666368398,,,,-5.9437504,3.6562502,-30.056252,,,,,,,,,,,,,,,
1736666368418,,,,-6.0,3.9,-29.75625,,,,,,,,,,,,,,,
1736666368438,,,,-6.24375,3.6562502,-29.1,,,,,,,,,,,,,,,
1736666368458,,,,-6.24375,3.7125,-28.25625,,,,,,,,,,,,,,,
1736666368479,,,,-6.3562503,3.54375,-27.956251,,,,,,,,,,,,,,,
1736666368498,,,,-6.5437503,3.05625,-27.900002,,,,,,,,,,,,,,,
1736666368518,,,,-6.4125004,3.0,-27.656252,,,,,,,,,,,,,,,
1736666368538,,,,-6.3562503,3.0,-27.843752,,,,,,,,,,,,,,,
1736666368558,,,,-6.3562503,3.24375,-27.35625,,,,,,,,,,,,,,,
1736666368578,,,,-6.3562503,3.24375,-26.75625,,,,,,,,,,,,,,,
1736666368599,,,,-6.4125004,3.54375,-26.400002,,,,,,,,,,,,,,,
1736666368618,,,,-6.9,3.35625,-25.44375,,,,,,,,,,,,,,,
1736666368639,,,,-6.9,3.35625,-25.143751,,,,,,,,,,,,,,,
1736666368658,,,,-6.95625,3.6000001,-24.956251,,,,,,,,,,,,,,,
1736666368679,,,,-6.95625,3.54375,-24.6,,,,,,,,,,,,,,,
1736666368699,,,,-6.8437505,3.6000001,-24.112501,,,,,,,,,,,,,,,
1736666368718,,,,-7.0125003,3.6562502,-24.0,,,,,,,,,,,,,,,
1736666368739,,,,-7.4437504,3.35625,-23.456251,,,,,,,,,,,,,,,
1736666368758,,,,-7.4437504,3.3000002,-23.212502,,,,,,,,,,,,,,,
1736666368778,,,,-7.2562504,3.35625,-23.34375,,,,,,,,,,,,,,,
1736666365776,,,,,,,-0.334918,1.355257,9.706776,,,,,,,,,,,,
1736666365786,,,,,,,-0.328295,1.353632,9.707229,,,,,,,,,,,,
1736666365796,,,,,,,-0.320713,1.355218,9.707262,,,,,,,,,,,,
1736666365807,,,,,,,-0.318319,1.351835,9.70781,,,,,,,,,,,,
1736666365817,,,,,,,-0.31485,1.34651,9.708664,,,,,,,,,,,,
1736666365827,,,,,,,-0.325784,1.337114,9.709602,,,,,,,,,,,,
1736666365837,,,,,,,-0.330787,1.333368,9.709949,,,,,,,,,,,,
1736666365847,,,,,,,-0.352007,1.358453,9.705719,,,,,,,,,,,,
1736666365857,,,,,,,-0.378778,1.342551,9.706918,,,,,,,,,,,,
1736666365867,,,,,,,-0.368741,1.314882,9.711089,,,,,,,,,,,,
1736666365877,,,,,,,-0.360906,1.312172,9.711751,,,,,,,,,,,,
1736666365887,,,,,,,-0.34461,1.279984,9.716636,,,,,,,,,,,,
1736666365898,,,,,,,-0.316048,1.254308,9.720957,,,,,,,,,,,,
1736666365908,,,,,,,-0.323147,1.240932,9.722445,,,,,,,,,,,,
1736666365917,,,,,,,-0.312903,1.243772,9.72242,,,,,,,,,,,,
1736666365927,,,,,,,-0.32488,1.257642,9.720237,,,,,,,,,,,,
1736666365937,,,,,,,-0.336491,1.279664,9.71696,,,,,,,,,,,,
1736666365947,,,,,,,-0.321738,1.322083,9.711772,,,,,,,,,,,,
1736666365957,,,,,,,-0.323121,1.360614,9.706401,,,,,,,,,,,,
1736666365968,,,,,,,-0.307644,1.395883,9.701898,,,,,,,,,,,,
1736666365977,,,,,,,-0.291653,1.417696,9.699236,,,,,,,,,,,,
1736666365987,,,,,,,-0.276547,1.452925,9.69447,,,,,,,,,,,,
1736666365997,,,,,,,-0.266957,1.464109,9.693064,,,,,,,,,,,,
1736666366007,,,,,,,-0.248178,1.484885,9.690404,,,,,,,,,,,,
1736666366018,,,,,,,-0.239729,1.490073,9.689818,,,,,,,,,,,,
1736666366028,,,,,,,-0.223193,1.482285,9.691404,,,,,,,,,,,,
1736666366038,,,,,,,-0.210165,1.477085,9.692487,,,,,,,,,,,,
1736666366048,,,,,,,-0.20183,1.445404,9.697436,,,,,,,,,,,,
1736666366059,,,,,,,-0.194453,1.429715,9.699913,,,,,,,,,,,,
1736666366069,,,,,,,-0.214267,1.384743,9.706017,,,,,,,,,,,,
1736666366078,,,,,,,-0.224415,1.357006,9.709708,,,,,,,,,,,,
1736666366088,,,,,,,-0.243019,1.320128,9.714348,,,,,,,,,,,,
1736666366098,,,,,,,-0.256665,1.296106,9.717232,,,,,,,,,,,,
1736666366108,,,,,,,-0.267372,1.279662,9.719123,,,,,,,,,,,,
1736666366118,,,,,,,-0.270464,1.266696,9.720735,,,,,,,,,,,,
1736666366128,,,,,,,-0.268602,1.27931,9.719133,,,,,,,,,,,,
1736666366138,,,,,,,-0.269469,1.28325,9.71859,,,,,,,,,,,,
1736666366148,,,,,,,-0.259696,1.309687,9.715328,,,,,,,,,,,,
1736666366158,,,,,,,-0.253977,1.329446,9.712795,,,,,,,,,,,,
1736666366168,,,,,,,-0.260055,1.356838,9.708847,,,,,,,,,,,,
1736666366178,,,,,,,-0.263447,1.373652,9.706392,,,,,,,,,,,,
1736666366188,,,,,,,-0.267401,1.39419,9.703356,,,,,,,,,,,,
1736666366198,,,,,,,-0.271225,1.408637,9.701163,,,,,,,,,,,,
1736666366208,,,,,,,-0.264339,1.424838,9.698986,,,,,,,,,,,,
1736666366218,,,,,,,-0.261405,1.436933,9.697282,,,,,,,,,,,,
1736666366228,,,,,,,-0.263492,1.446172,9.695852,,,,,,,,,,,,
1736666366238,,,,,,,-0.261721,1.457161,9.694256,,,,,,,,,,,,
