timestamp,acc_x,acc_y,acc_z,mag_x,mag_y,mag_z,gra_x,gra_y,gra_z,gyr_x,gyr_y,gyr_z,linear_x,linear_y,linear_z,rot_x,rot_y,rot_z,light,pressure,proximity
1736666310599,-0.41700003,1.24605,9.574051,,,,,,,,,,,,,,,,,,
1736666310609,-0.37695003,1.251,9.507001,,,,,,,,,,,,,,,,,,
1736666310619,-0.42900002,1.2529501,9.44505,,,,,,,,,,,,,,,,,,
1736666310629,-0.39600003,1.296,9.48795,,,,,,,,,,,,,,,,,,
1736666310639,-0.36195,1.2940501,9.592951,,,,,,,,,,,,,,,,,,
1736666310649,-0.29805002,1.23195,9.660001,,,,,,,,,,,,,,,,,,
1736666310659,-0.20400001,1.1530501,9.727051,,,,,,,,,,,,,,,,,,
1736666310669,-0.13305001,1.11,9.745951,,,,,,,,,,,,,,,,,,
1736666310679,-0.079950005,1.05495,9.699,,,,,,,,,,,,,,,,,,
1736666310689,-0.075,1.0500001,9.715051,,,,,,,,,,,,,,,,,,
1736666310700,-0.10395,1.0020001,9.780001,,,,,,,,,,,,,,,,,,
1736666310710,-0.12495001,0.96795005,9.856951,,,,,,,,,,,,,,,,,,
1736666310719,-0.11805001,0.97800004,9.94995,,,,,,,,,,,,,,,,,,
1736666310729,-0.135,1.0020001,9.95505,,,,,,,,,,,,,,,,,,
1736666310740,-0.18795002,1.026,9.865951,,,,,,,,,,,,,,,,,,
1736666310750,-0.17805001,1.0330501,9.739051,,,,,,,,,,,,,,,,,,
1736666310760,-0.15195,1.0309501,9.700951,,,,,,,,,,,,,,,,,,
1736666310769,-0.16095,1.023,9.706051,,,,,,,,,,,,,,,,,,
1736666310780,-0.20895001,1.04295,9.739051,,,,,,,,,,,,,,,,,,
1736666310790,-0.24495001,1.1190001,9.76095,,,,,,,,,,,,,,,,,,
1736666310800,-0.22305001,1.16205,9.727051,,,,,,,,,,,,,,,,,,
1736666310810,-0.156,1.12905,9.757951,,,,,,,,,,,,,,,,,,
1736666310820,-0.07305,1.0830001,9.77805,,,,,,,,,,,,,,,,,,
1736666310830,-0.07005,1.0690501,9.8230505,,,,,,,,,,,,,,,,,,
1736666310840,-0.156,1.074,9.8230505,,,,,,,,,,,,,,,,,,
1736666310850,-0.19995001,1.11,9.816001,,,,,,,,,,,,,,,,,,
1736666310860,-0.21900001,1.0860001,9.77505,,,,,,,,,,,,,,,,,,
1736666310870,-0.24000001,1.0570501,9.724951,,,,,,,,,,,,,,,,,,
1736666310880,-0.25005,1.04505,9.73005,,,,,,,,,,,,,,,,,,
1736666310890,-0.23805001,1.0210501,9.736951,,,,,,,,,,,,,,,,,,
1736666310900,-0.20895001,1.026,9.792001,,,,,,,,,,,,,,,,,,
1736666310911,-0.20205002,0.97605,9.84,,,,,,,,,,,,,,,,,,
1736666310920,-0.24705002,0.94905007,9.861,,,,,,,,,,,,,,,,,,
1736666310930,-0.34605002,0.98295003,9.835051,,,,,,,,,,,,,,,,,,
1736666310940,-0.31005,1.0210501,9.792001,,,,,,,,,,,,,,,,,,
1736666310951,-0.29505002,1.047,9.78495,,,,,,,,,,,,,,,,,,
1736666310961,-0.27600002,1.05495,9.792001,,,,,,,,,,,,,,,,,,
1736666310970,-0.23505001,1.04505,9.74895,,,,,,,,,,,,,,,,,,
1736666310980,-0.26700002,1.04505,9.65505,,,,,,,,,,,,,,,,,,
1736666310991,-0.25500003,1.07595,9.529051,,,,,,,,,,,,,,,,,,
1736666311001,-0.28095,1.15995,9.47595,,,,,,,,,,,,,,,,,,
1736666311012,-0.30705002,1.215,9.52095,,,,,,,,,,,,,,,,,,
1736666311022,-0.32895002,1.2270001,9.64305,,,,,,,,,,,,,,,,,,
1736666311031,-0.34095,1.1910001,9.757951,,,,,,,,,,,,,,,,,,
1736666311041,-0.35295,1.1220001,9.832951,,,,,,,,,,,,,,,,,,
1736666311051,-0.33795002,1.0710001,9.864,,,,,,,,,,,,,,,,,,
1736666311061,-0.32205,1.074,9.880051,,,,,,,,,,,,,,,,,,
1736666311071,-0.31905,1.0500001,9.8880005,,,,,,,,,,,,,,,,,,
1736666311081,-0.31005,1.04505,9.883051,,,,,,,,,,,,,,,,,,
1736666311091,-0.31695002,1.062,9.81795,,,,,,,,,,,,,,,,,,
1736666311101,-0.27105,1.0669501,9.78705,,,,,,,,,,,,,,,,,,
1736666311111,-0.21405001,1.0639501,9.78705,,,,,,,,,,,,,,,,,,
1736666311121,-0.28095,1.0519501,9.79695,,,,,,,,,,,,,,,,,,
1736666311132,-0.31695002,1.0879501,9.79905,,,,,,,,,,,,,,,,,,
1736666311142,-0.33105,1.1380501,9.78705,,,,,,,,,,,,,,,,,,
1736666311151,-0.34800002,1.11705,9.768001,,,,,,,,,,,,,,,,,,
1736666311161,-0.30705002,1.0879501,9.706051,,,,,,,,,,,,,,,,,,
1736666311171,-0.26895002,1.0350001,9.73005,,,,,,,,,,,,,,,,,,
1736666311181,-0.22305001,1.023,9.8539505,,,,,,,,,,,,,,,,,,
1736666311191,-0.24300002,1.026,9.96405,,,,,,,,,,,,,,,,,,
1736666311201,-0.30495003,1.00695,9.981001,,,,,,,,,,,,,,,,,,
1736666311212,-0.30705002,1.00905,9.94305,,,,,,,,,,,,,,,,,,
1736666311222,-0.22305001,1.02795,9.852,,,,,,,,,,,,,,,,,,
1736666311231,-0.18795002,1.0570501,9.7560005,,,,,,,,,,,,,,,,,,
1736666311242,-0.17595,1.0690501,9.67905,,,,,,,,,,,,,,,,,,
1736666311252,-0.12795001,1.11,9.639001,,,,,,,,,,,,,,,,,,
1736666311262,-0.156,1.1550001,9.574051,,,,,,,,,,,,,,,,,,
1736666311272,-0.23505001,1.2049501,9.505051,,,,,,,,,,,,,,,,,,
1736666311282,-0.31005,1.26795,9.568951,,,,,,,,,,,,,,,,,,
1736666311293,-0.324,1.3060501,9.660001,,,,,,,,,,,,,,,,,,
1736666311303,-0.30705002,1.2529501,9.63405,,,,,,,,,,,,,,,,,,
1736666311312,-0.29505002,1.23195,9.6,,,,,,,,,,,,,,,,,,
1736666311322,-0.20700002,1.2559501,9.639001,,,,,,,,,,,,,,,,,,
1736666311332,-0.20700002,1.2199501,9.696,,,,,,,,,,,,,,,,,,
1736666311342,-0.28095,1.19805,9.696,,,,,,,,,,,,,,,,,,
1736666311352,-0.29505002,1.1839501,9.670051,,,,,,,,,,,,,,,,,,
1736666311362,-0.25005,1.1740501,9.72,,,,,,,,,,,,,,,,,,
1736666311373,-0.24300002,1.167,9.74205,,,,,,,,,,,,,,,,,,
1736666311383,-0.20895001,1.1740501,9.76305,,,,,,,,,,,,,,,,,,
1736666311392,-0.16095,1.1530501,9.7560005,,,,,,,,,,,,,,,,,,
1736666311402,-0.13305001,1.1530501,9.648001,,,,,,,,,,,,,,,,,,
1736666311413,-0.15900001,1.18605,9.559951,,,,,,,,,,,,,,,,,,
1736666311423,-0.24000001,1.2409501,9.53295,,,,,,,,,,,,,,,,,,
1736666311432,-0.31005,1.2720001,9.5449505,,,,,,,,,,,,,,,,,,
1736666311442,-0.24495001,1.23405,9.604951,,,,,,,,,,,,,,,,,,
1736666311453,-0.17805001,1.15005,9.624001,,,,,,,,,,,,,,,,,,
1736666311463,-0.17805001,1.11405,9.64095,,,,,,,,,,,,,,,,,,
1736666311474,-0.15195,1.107,9.708,,,,,,,,,,,,,,,,,,
1736666311483,-0.147,1.1220001,9.721951,,,,,,,,,,,,,,,,,,
1736666311493,-0.18300001,1.1530501,9.663,,,,,,,,,,,,,,,,,,
1736666311503,-0.19500001,1.1740501,9.61905,,,,,,,,,,,,,,,,,,
1736666311513,-0.171,1.1689501,9.556951,,,,,,,,,,,,,,,,,,
1736666311523,-0.17595,1.16505,9.48495,,,,,,,,,,,,,,,,,,
1736666311534,-0.18300001,1.1740501,9.45195,,,,,,,,,,,,,,,,,,
1736666311544,-0.17595,1.1839501,9.45705,,,,,,,,,,,,,,,,,,
1736666311554,-0.10605001,1.18605,9.49695,,,,,,,,,,,,,,,,,,
1736666311563,-0.12795001,1.1220001,9.526051,,,,,,,,,,,,,,,,,,
1736666311573,-0.171,1.0690501,9.592951,,,,,,,,,,,,,,,,,,
1736666311583,-0.14895001,1.0570501,9.672001,,,,,,,,,,,,,,,,,,
1736666311594,-0.15900001,1.062,9.724951,,,,,,,,,,,,,,,,,,
1736666311604,-0.21405001,1.098,9.71805,,,,,,,,,,,,,,,,,,
1736666311613,-0.26895002,1.1359501,9.663,,,,,,,,,,,,,,,,,,
1736666311623,-0.27405003,1.1550001,9.580951,,,,,,,,,,,,,,,,,,
1736666311633,-0.18495001,1.1359501,9.59595,,,,,,,,,,,,,,,,,,
1736666311643,-0.147,1.0900501,9.591001,,,,,,,,,,,,,,,,,,
1736666311653,-0.12795001,1.0690501,9.592951,,,,,,,,,,,,,,,,,,
1736666311663,-0.10605001,1.07595,9.615001,,,,,,,,,,,,,,,,,,
1736666311674,-0.15405001,1.098,9.591001,,,,,,,,,,,,,,,,,,
1736666311684,-0.192,1.12395,9.495001,,,,,,,,,,,,,,,,,,
1736666311693,-0.26700002,1.11705,9.44505,,,,,,,,,,,,,,,,,,
1736666311703,-0.24495001,1.1550001,9.49695,,,,,,,,,,,,,,,,,,
1736666311715,-0.22095,1.20105,9.523951,,,,,,,,,,,,,,,,,,
1736666311725,-0.24705002,1.19805,9.50895,,,,,,,,,,,,,,,,,,
1736666310625,,,,-15.356251,-20.587502,-32.100002,,,,,,,,,,,,,,,
1736666310649,,,,-27.900002,-9.243751,-13.500001,,,,,,,,,,,,,,,
1736666310669,,,,-27.35625,-9.3,-12.95625,,,,,,,,,,,,,,,
1736666310689,,,,-27.35625,-9.4875,-12.6,,,,,,,,,,,,,,,
1736666310710,,,,-26.75625,-9.84375,-12.356251,,,,,,,,,,,,,,,
1736666310729,,,,-26.456251,-9.95625,-12.1125,,,,,,,,,,,,,,,
1736666310749,,,,-26.7,-10.200001,-12.1125,,,,,,,,,,,,,,,
1736666310769,,,,-26.212502,-10.200001,-12.3,,,,,,,,,,,,,,,
1736666310790,,,,-26.643751,-9.900001,-12.3,,,,,,,,,,,,,,,
1736666310810,,,,-26.643751,-9.84375,-12.3,,,,,,,,,,,,,,,
1736666310830,,,,-26.400002,-9.356251,-12.543751,,,,,,,,,,,,,,,
1736666310850,,,,-26.7,-9.543751,-12.4125,,,,,,,,,,,,,,,
1736666310870,,,,-26.456251,-9.4875,-12.356251,,,,,,,,,,,,,,,
1736666310889,,,,-26.400002,-9.356251,-12.3,,,,,,,,,,,,,,,
1736666310909,,,,-26.5125,-9.6,-12.356251,,,,,,,,,,,,,,,
1736666310929,,,,-26.643751,-9.4875,-12.712501,,,,,,,,,,,,,,,
1736666310949,,,,-26.75625,-9.7875,-12.656251,,,,,,,,,,,,,,,
1736666310970,,,,-26.94375,-9.84375,-12.843751,,,,,,,,,,,,,,,
1736666310989,,,,-27.056252,-9.7875,-12.543751,,,,,,,,,,,,,,,
1736666311009,,,,-26.75625,-9.84375,-12.4125,,,,,,,,,,,,,,,
1736666311030,,,,-26.7,-9.6,-12.543751,,,,,,,,,,,,,,,
1736666311050,,,,-26.812502,-9.4875,-12.6,,,,,,,,,,,,,,,
1736666311069,,,,-26.643751,-9.6,-12.712501,,,,,,,,,,,,,,,
1736666311090,,,,-26.75625,-9.543751,-12.6,,,,,,,,,,,,,,,
1736666311109,,,,-26.812502,-9.6,-12.712501,,,,,,,,,,,,,,,
1736666311129,,,,-26.94375,-9.6,-12.4125,,,,,,,,,,,,,,,
1736666311149,,,,-27.112501,-9.6,-12.6,,,,,,,,,,,,,,,
1736666311170,,,,-27.112501,-9.4875,-12.356251,,,,,,,,,,,,,,,
1736666311189,,,,-27.300001,-9.4875,-12.056251,,,,,,,,,,,,,,,
1736666311209,,,,-26.7,-9.65625,-12.3,,,,,,,,,,,,,,,
1736666311229,,,,-26.7,-9.900001,-12.356251,,,,,,,,,,,,,,,
1736666311250,,,,-26.643751,-10.200001,-12.056251,,,,,,,,,,,,,,,
1736666311269,,,,-26.7,-10.14375,-12.3,,,,,,,,,,,,,,,
1736666311289,,,,-27.243752,-10.200001,-12.1125,,,,,,,,,,,,,,,
1736666311310,,,,-27.056252,-9.95625,-11.64375,,,,,,,,,,,,,,,
1736666311329,,,,-27.243752,-9.84375,-12.056251,,,,,,,,,,,,,,,
1736666311349,,,,-27.54375,-10.087501,-11.94375,,,,,,,,,,,,,,,
1736666311369,,,,-27.656252,-9.95625,-12.056251,,,,,,,,,,,,,,,
1736666311389,,,,-27.900002,-9.900001,-12.4125,,,,,,,,,,,,,,,
1736666311409,,,,-27.843752,-9.84375,-12.356251,,,,,,,,,,,,,,,
1736666311429,,,,-27.656252,-10.087501,-12.356251,,,,,,,,,,,,,,,
1736666311449,,,,-27.656252,-10.14375,-12.4125,,,,,,,,,,,,,,,
1736666311469,,,,-27.4125,-10.387501,-12.356251,,,,,,,,,,,,,,,
1736666311489,,,,-27.243752,-10.6875,-12.056251,,,,,,,,,,,,,,,
1736666311509,,,,-27.243752,-10.5,-11.94375,,,,,,,,,,,,,,,
1736666311529,,,,-27.112501,-10.200001,-11.8125,,,,,,,,,,,,,,,
1736666311550,,,,-26.94375,-10.200001,-11.94375,,,,,,,,,,,,,,,
1736666311569,,,,-27.54375,-10.25625,-12.243751,,,,,,,,,,,,,,,
1736666311589,,,,-27.112501,-10.200001,-12.356251,,,,,,,,,,,,,,,
1736666311610,,,,-26.812502,-10.387501,-12.356251,,,,,,,,,,,,,,,
1736666311629,,,,-27.112501,-10.14375,-12.056251,,,,,,,,,,,,,,,
1736666311649,,,,-26.812502,-10.087501,-11.94375,,,,,,,,,,,,,,,
1736666311670,,,,-26.812502,-10.200001,-12.1125,,,,,,,,,,,,,,,
1736666311689,,,,-26.75625,-10.200001,-12.243751,,,,,,,,,,,,,,,
1736666311710,,,,-26.94375,-10.5,-12.6,,,,,,,,,,,,,,,
1736666310609,,,,,,,-0.296351,1.17562,9.731415,,,,,,,,,,,,
1736666310619,,,,,,,-0.296778,1.176999,9.731236,,,,,,,,,,,,
1736666310629,,,,,,,-0.299823,1.183416,9.730366,,,,,,,,,,,,
1736666310639,,,,,,,-0.308683,1.186117,9.729759,,,,,,,,,,,,
1736666310649,,,,,,,-0.306567,1.185388,9.729916,,,,,,,,,,,,
1736666310659,,,,,,,-0.31144,1.19182,9.728974,,,,,,,,,,,,
1736666310669,,,,,,,-0.295964,1.181974,9.730659,,,,,,,,,,,,
1736666310679,,,,,,,-0.287974,1.178083,9.73137,,,,,,,,,,,,
1736666310689,,,,,,,-0.270572,1.166032,9.733322,,,,,,,,,,,,
1736666310700,,,,,,,-0.255636,1.154696,9.735075,,,,,,,,,,,,
1736666310710,,,,,,,-0.245664,1.13543,9.737599,,,,,,,,,,,,
1736666310719,,,,,,,-0.23416,1.121455,9.739502,,,,,,,,,,,,
1736666310729,,,,,,,-0.224155,1.107878,9.741291,,,,,,,,,,,,
1736666310740,,,,,,,-0.210789,1.093913,9.743167,,,,,,,,,,,,
1736666310750,,,,,,,-0.202301,1.085287,9.744313,,,,,,,,,,,,
1736666310760,,,,,,,-0.191279,1.078428,9.745296,,,,,,,,,,,,
1736666310769,,,,,,,-0.184037,1.071469,9.746204,,,,,,,,,,,,
1736666310780,,,,,,,-0.180984,1.065688,9.746893,,,,,,,,,,,,
1736666310791,,,,,,,-0.17459,1.059603,9.747673,,,,,,,,,,,,
1736666310800,,,,,,,-0.174204,1.065903,9.746994,,,,,,,,,,,,
1736666310810,,,,,,,-0.176845,1.068216,9.746694,,,,,,,,,,,,
1736666310820,,,,,,,-0.166893,1.068221,9.746869,,,,,,,,,,,,
1736666310830,,,,,,,-0.167167,1.073881,9.746242,,,,,,,,,,,,
1736666310840,,,,,,,-0.16894,1.075571,9.746025,,,,,,,,,,,,
1736666310850,,,,,,,-0.163433,1.077355,9.745922,,,,,,,,,,,,
1736666310860,,,,,,,-0.169686,1.080405,9.745477,,,,,,,,,,,,
1736666310870,,,,,,,-0.172153,1.083683,9.74507,,,,,,,,,,,,
1736666310880,,,,,,,-0.177425,1.080054,9.745377,,,,,,,,,,,,
1736666310890,,,,,,,-0.180695,1.07624,9.745741,,,,,,,,,,,,
1736666310900,,,,,,,-0.180683,1.068696,9.746571,,,,,,,,,,,,
1736666310911,,,,,,,-0.183876,1.061975,9.747244,,,,,,,,,,,,
1736666310921,,,,,,,-0.18825,1.049853,9.748475,,,,,,,,,,,,
1736666310931,,,,,,,-0.188487,1.043119,9.749192,,,,,,,,,,,,
1736666310940,,,,,,,-0.198295,1.042933,9.749019,,,,,,,,,,,,
1736666310951,,,,,,,-0.211088,1.039773,9.749087,,,,,,,,,,,,
1736666310961,,,,,,,-0.217653,1.044022,9.748488,,,,,,,,,,,,
1736666310970,,,,,,,-0.225275,1.047991,9.74789,,,,,,,,,,,,
1736666310980,,,,,,,-0.229479,1.05291,9.747261,,,,,,,,,,,,
1736666310991,,,,,,,-0.230052,1.05583,9.746931,,,,,,,,,,,,
1736666311001,,,,,,,-0.234939,1.069133,9.745366,,,,,,,,,,,,
1736666311011,,,,,,,-0.237376,1.070827,9.745121,,,,,,,,,,,,
1736666311022,,,,,,,-0.246004,1.081843,9.74369,,,,,,,,,,,,
1736666311031,,,,,,,-0.252951,1.091431,9.742443,,,,,,,,,,,,
1736666311041,,,,,,,-0.262586,1.089941,9.742355,,,,,,,,,,,,
1736666311051,,,,,,,-0.270793,1.096823,9.741357,,,,,,,,,,,,
1736666311061,,,,,,,-0.277488,1.094196,9.741464,,,,,,,,,,,,
1736666311071,,,,,,,-0.28598,1.09351,9.741296,,,,,,,,,,,,
1736666311081,,,,,,,-0.291267,1.09177,9.741334,,,,,,,,,,,,
1736666311091,,,,,,,-0.295673,1.09115,9.74127,,,,,,,,,,,,
1736666311101,,,,,,,-0.294918,1.092372,9.741158,,,,,,,,,,,,
1736666311111,,,,,,,-0.297497,1.091931,9.741126,,,,,,,,,,,,
1736666311121,,,,,,,-0.296323,1.090596,9.741313,,,,,,,,,,,,
1736666311132,,,,,,,-0.289357,1.090488,9.741535,,,,,,,,,,,,
1736666311142,,,,,,,-0.292761,1.096722,9.740733,,,,,,,,,,,,
1736666311151,,,,,,,-0.294507,1.098124,9.740521,,,,,,,,,,,,
1736666311161,,,,,,,-0.295342,1.100105,9.740274,,,,,,,,,,,,
1736666311171,,,,,,,-0.300214,1.103222,9.739773,,,,,,,,,,,,
1736666311181,,,,,,,-0.295082,1.096957,9.740637,,,,,,,,,,,,
1736666311191,,,,,,,-0.294534,1.093604,9.741029,,,,,,,,,,,,
1736666311201,,,,,,,-0.295486,1.087071,9.741734,,,,,,,,,,,,
1736666311212,,,,,,,-0.289252,1.084073,9.742253,,,,,,,,,,,,
1736666311222,,,,,,,-0.280616,1.083643,9.742554,,,,,,,,,,,,
1736666311232,,,,,,,-0.278851,1.081553,9.742838,,,,,,,,,,,,
1736666311243,,,,,,,-0.266881,1.087232,9.74254,,,,,,,,,,,,
1736666311252,,,,,,,-0.256947,1.090985,9.742387,,,,,,,,,,,,
1736666311262,,,,,,,-0.246679,1.104949,9.74108,,,,,,,,,,,,
1736666311272,,,,,,,-0.236522,1.113095,9.740404,,,,,,,,,,,,
1736666311282,,,,,,,-0.245282,1.133502,9.737834,,,,,,,,,,,,
1736666311293,,,,,,,-0.247305,1.145735,9.736351,,,,,,,,,,,,
1736666311303,,,,,,,-0.253429,1.158063,9.734734,,,,,,,,,,,,
1736666311312,,,,,,,-0.258478,1.171851,9.732952,,,,,,,,,,,,
1736666311322,,,,,,,-0.252462,1.179017,9.732244,,,,,,,,,,,,
1736666311332,,,,,,,-0.255079,1.183604,9.731621,,,,,,,,,,,,
1736666311342,,,,,,,-0.256545,1.184341,9.731491,,,,,,,,,,,,
1736666311352,,,,,,,-0.252304,1.187486,9.731218,,,,,,,,,,,,
1736666311362,,,,,,,-0.253183,1.186268,9.731345,,,,,,,,,,,,
1736666311372,,,,,,,-0.258629,1.186883,9.731125,,,,,,,,,,,,
1736666311382,,,,,,,-0.256246,1.186426,9.731244,,,,,,,,,,,,
1736666311392,,,,,,,-0.256064,1.186022,9.731298,,,,,,,,,,,,
1736666311402,,,,,,,-0.245523,1.185913,9.731583,,,,,,,,,,,,
1736666311413,,,,,,,-0.237819,1.184283,9.731974,,,,,,,,,,,,
1736666311423,,,,,,,-0.237265,1.1913,9.73113,,,,,,,,,,,,
1736666311432,,,,,,,-0.229428,1.190882,9.731369,,,,,,,,,,,,
1736666311442,,,,,,,-0.229977,1.192978,9.731099,,,,,,,,,,,,
1736666311453,,,,,,,-0.236535,1.198634,9.730247,,,,,,,,,,,,
1736666311463,,,,,,,-0.232233,1.190246,9.731381,,,,,,,,,,,,
1736666311473,,,,,,,-0.229223,1.18703,9.731845,,,,,,,,,,,,
1736666311483,,,,,,,-0.223514,1.182012,9.732588,,,,,,,,,,,,
1736666311493,,,,,,,-0.217764,1.176746,9.733357,,,,,,,,,,,,
1736666311503,,,,,,,-0.214942,1.177979,9.733271,,,,,,,,,,,,
1736666311513,,,,,,,-0.2092,1.17569,9.733672,,,,,,,,,,,,
1736666311523,,,,,,,-0.202403,1.175316,9.733861,,,,,,,,,,,,
1736666311533,,,,,,,-0.195497,1.173793,9.734186,,,,,,,,,,,,
1736666311543,,,,,,,-0.19117,1.174304,9.734211,,,,,,,,,,,,
1736666311554,,,,,,,-0.190086,1.174016,9.734266,,,,,,,,,,,,
1736666311564,,,,,,,-0.186386,1.16844,9.735008,,,,,,,,,,,,
1736666311573,,,,,,,-0.182644,1.169335,9.734973,,,,,,,,,,,,
1736666311583,,,,,,,-0.18317,1.157711,9.73635,,,,,,,,,,,,
1736666311594,,,,,,,-0.184361,1.149332,9.737322,,,,,,,,,,,,
1736666311604,,,,,,,-0.186865,1.143614,9.737947,,,,,,,,,,,,
1736666311613,,,,,,,-0.182403,1.135696,9.738959,,,,,,,,,,,,
1736666311623,,,,,,,-0.187394,1.137489,9.738654,,,,,,,,,,,,
1736666311633,,,,,,,-0.191507,1.136486,9.738691,,,,,,,,,,,,
1736666311643,,,,,,,-0.185721,1.133154,9.739191,,,,,,,,,,,,
1736666311653,,,,,,,-0.185319,1.134982,9.738988,,,,,,,,,,,,
1736666311663,,,,,,,-0.179181,1.13228,9.739416,,,,,,,,,,,,
1736666311673,,,,,,,-0.175337,1.130109,9.739738,,,,,,,,,,,,
1736666311683,,,,,,,-0.176322,1.134022,9.739265,,,,,,,,,,,,
1736666311694,,,,,,,-0.172966,1.133128,9.739429,,,,,,,,,,,,
1736666311704,,,,,,,-0.177862,1.136531,9.738944,,,,,,,,,,,,
1736666311714,,,,,,,-0.184044,1.13614,9.738875,,,,,,,,,,,,
1736666311724,,,,,,,-0.187508,1.142879,9.738023,,,,,,,,,,,,
1736666310619,,,,,,,,,,-0.064625,-0.1071125,0.0061875,,,,,,,,,
1736666310629,,,,,,,,,,-0.066825,-0.0614625,0.0242,,,,,,,,,
1736666310639,,,,,,,,,,-0.066825,-0.0284625,0.0455125,,,,,,,,,
1736666310649,,,,,,,,,,-0.0572,-0.00605,0.066825,,,,,,,,,
1736666310659,,,,,,,,,,-0.0466125,0.0067375,0.081675,,,,,,,,,
1736666310669,,,,,,,,,,-0.031625,0.0077,0.081675,,,,,,,,,
1736666310679,,,,,,,,,,-0.017875,0.0067375,0.0732875,,,,,,,,,
1736666310689,,,,,,,,,,-0.016775,0.015262499,0.0636625,,,,,,,,,
1736666310700,,,,,,,,,,-0.0253,0.019524999,0.051975,,,,,,,,,
1736666310710,,,,,,,,,,-0.0273625,0.017324999,0.0402875,,,,,,,,,
1736666310719,,,,,,,,,,-0.0253,0.0099,0.0317625,,,,,,,,,
1736666310729,,,,,,,,,,-0.017875,-0.0114124995,0.020075,,,,,,,,,
1736666310740,,,,,,,,,,-0.013612499,-0.041249998,0.0125124995,,,,,,,,,
1736666310749,,,,,,,,,,-0.0188375,-0.064625,0.0061875,,,,,,,,,
1736666310760,,,,,,,,,,-0.0273625,-0.06985,-0.0012375,,,,,,,,,
1736666310769,,,,,,,,,,-0.032725,-0.064625,-0.0119624995,,,,,,,,,
1736666310780,,,,,,,,,,-0.034925,-0.0561,-0.0193875,,,,,,,,,
1736666310791,,,,,,,,,,-0.0295625,-0.0518375,-0.02255,,,,,,,,,
1736666310801,,,,,,,,,,-0.0264,-0.0496375,-0.0204875,,,,,,,,,
1736666310810,,,,,,,,,,-0.0210375,-0.0369875,-0.0171875,,,,,,,,,
1736666310820,,,,,,,,,,-0.01045,-0.0125124995,-0.014025,,,,,,,,,
1736666310831,,,,,,,,,,0.0066,0.0099,-0.0171875,,,,,,,,,
1736666310841,,,,,,,,,,0.02475,0.02585,-0.02145,,,,,,,,,
1736666310850,,,,,,,,,,0.031075,0.02805,-0.0193875,,,,,,,,,
1736666310860,,,,,,,,,,0.0268125,0.014162499,-0.015125,,,,,,,,,
1736666310870,,,,,,,,,,0.015125,-0.0017875,-0.016224999,,,,,,,,,
1736666310880,,,,,,,,,,-0.0050875,-0.016775,-0.016224999,,,,,,,,,
1736666310890,,,,,,,,,,-0.0210375,-0.0242,-0.015125,,,,,,,,,
1736666310900,,,,,,,,,,-0.0295625,-0.0262625,-0.014025,,,,,,,,,
1736666310911,,,,,,,,,,-0.0284625,-0.0199375,-0.016224999,,,,,,,,,
1736666310921,,,,,,,,,,-0.016775,-0.0114124995,-0.02145,,,,,,,,,
1736666310930,,,,,,,,,,0.0034375,-0.0114124995,-0.0268125,,,,,,,,,
1736666310941,,,,,,,,,,0.0215875,-0.00825,-0.029975,,,,,,,,,
1736666310950,,,,,,,,,,0.0279125,2.75E-4,-0.0353375,,,,,,,,,
1736666310960,,,,,,,,,,0.0353375,0.0067375,-0.0396,,,,,,,,,
1736666310970,,,,,,,,,,0.0418,0.0067375,-0.0364375,,,,,,,,,
1736666310980,,,,,,,,,,0.0449625,2.75E-4,-0.0364375,,,,,,,,,
1736666310990,,,,,,,,,,0.0375375,-0.0039875,-0.0385,,,,,,,,,
1736666311000,,,,,,,,,,0.0182875,-0.00605,-0.0407,,,,,,,,,
1736666311011,,,,,,,,,,-0.00935,-0.0017875,-0.0374,,,,,,,,,
1736666311021,,,,,,,,,,-0.032725,0.002475,-0.0268125,,,,,,,,,
1736666311031,,,,,,,,,,-0.041249998,0.0099,-0.012925,,,,,,,,,
1736666311041,,,,,,,,,,-0.032725,0.014162499,0.003025,,,,,,,,,
1736666311051,,,,,,,,,,-0.015675,0.017324999,0.01155,,,,,,,,,
1736666311061,,,,,,,,,,0.0056375,0.0290125,0.013612499,,,,,,,,,
1736666311072,,,,,,,,,,0.02365,0.0386375,0.0158125,,,,,,,,,
1736666311082,,,,,,,,,,0.0364375,0.0386375,0.016775,,,,,,,,,
1736666311091,,,,,,,,,,0.0427625,0.02585,0.014712499,,,,,,,,,
1736666311101,,,,,,,,,,0.0375375,0.015262499,0.00935,,,,,,,,,
1736666311111,,,,,,,,,,0.0290125,0.0088,-1.375E-4,,,,,,,,,
1736666311121,,,,,,,,,,0.0257125,0.002475,-0.0077,,,,,,,,,
1736666311131,,,,,,,,,,0.0257125,2.75E-4,-0.0077,,,,,,,,,
1736666311141,,,,,,,,,,0.0268125,-6.875E-4,-1.375E-4,,,,,,,,,
1736666311152,,,,,,,,,,0.0268125,-6.875E-4,0.01155,,,,,,,,,
1736666311162,,,,,,,,,,0.02475,-0.0017875,0.020075,,,,,,,,,
1736666311171,,,,,,,,,,0.0193875,0.0067375,0.0210375,,,,,,,,,
1736666311181,,,,,,,,,,0.014025,0.018424999,0.018975,,,,,,,,,
1736666311191,,,,,,,,,,0.017324999,0.017324999,0.00825,,,,,,,,,
1736666311201,,,,,,,,,,0.0290125,0.0067375,0.003025,,,,,,,,,
1736666311211,,,,,,,,,,0.0418,-0.013475,-1.375E-4,,,,,,,,,
1736666311222,,,,,,,,,,0.0534875,-0.029424999,-0.0012375,,,,,,,,,
1736666311231,,,,,,,,,,0.0609125,-0.03795,-0.0108624995,,,,,,,,,
1736666311242,,,,,,,,,,0.062975,-0.0358875,-0.0193875,,,,,,,,,
1736666311253,,,,,,,,,,0.066275,-0.0358875,-0.028875,,,,,,,,,
1736666311263,,,,,,,,,,0.0705375,-0.0242,-0.0374,,,,,,,,,
1736666311272,,,,,,,,,,0.0694375,-0.00495,-0.031075,,,,,,,,,
1736666311282,,,,,,,,,,0.056649998,0.018424999,-0.02255,,,,,,,,,
1736666311293,,,,,,,,,,0.0375375,0.0237875,-0.0034375,,,,,,,,,
1736666311303,,,,,,,,,,0.0215875,0.0088,0.0125124995,,,,,,,,,
1736666311312,,,,,,,,,,0.0045375,-0.0103124995,0.0158125,,,,,,,,,
1736666311322,,,,,,,,,,-0.01045,-0.0166375,0.013612499,,,,,,,,,
1736666311333,,,,,,,,,,-0.013612499,-0.013475,0.00825,,,,,,,,,
1736666311342,,,,,,,,,,-0.00935,-0.00825,0.0061875,,,,,,,,,
1736666311352,,,,,,,,,,-0.0028875,2.75E-4,0.00935,,,,,,,,,
1736666311362,,,,,,,,,,-0.0028875,0.0119624995,0.0125124995,,,,,,,,,
1736666311372,,,,,,,,,,0.0012375,0.018424999,0.0125124995,,,,,,,,,
1736666311382,,,,,,,,,,0.0088,0.0204875,0.01155,,,,,,,,,
1736666311393,,,,,,,,,,0.013062499,0.011,0.00935,,,,,,,,,
1736666311402,,,,,,,,,,0.0182875,-6.875E-4,0.0039875,,,,,,,,,
1736666311412,,,,,,,,,,0.014025,-0.00605,-0.0066,,,,,,,,,
1736666311422,,,,,,,,,,2.75E-4,-0.013475,-0.0086624995,,,,,,,,,
1736666311432,,,,,,,,,,-0.018975,-0.014575,-1.375E-4,,,,,,,,,
1736666311442,,,,,,,,,,-0.0306625,-0.0092124995,0.0158125,,,,,,,,,
1736666311452,,,,,,,,,,-0.032725,-0.00495,0.0243375,,,,,,,,,
1736666311462,,,,,,,,,,-0.0232375,0.0078375,0.0210375,,,,,,,,,
1736666311473,,,,,,,,,,-0.01045,0.016224999,0.014712499,,,,,,,,,
1736666311483,,,,,,,,,,0.0034375,0.014162499,0.00935,,,,,,,,,
1736666311493,,,,,,,,,,0.0077,0.003575,0.003025,,,,,,,,,
1736666311503,,,,,,,,,,0.0023375,-0.0114124995,-0.0012375,,,,,,,,,
1736666311514,,,,,,,,,,-0.00935,-0.032725,-0.0023375,,,,,,,,,
1736666311524,,,,,,,,,,-0.0210375,-0.045375,-0.0055,,,,,,,,,
1736666311533,,,,,,,,,,-0.0295625,-0.047575,-0.0097624995,,,,,,,,,
1736666311543,,,,,,,,,,-0.033825,-0.032725,-0.0066,,,,,,,,,
1736666311553,,,,,,,,,,-0.033825,-0.00825,0.0061875,,,,,,,,,
1736666311564,,,,,,,,,,-0.033825,0.015262499,0.01155,,,,,,,,,
1736666311573,,,,,,,,,,-0.032725,0.0312125,0.0158125,,,,,,,,,
1736666311583,,,,,,,,,,-0.0284625,0.034375,0.00935,,,,,,,,,
1736666311593,,,,,,,,,,-0.0232375,0.019524999,-0.0066,,,,,,,,,
1736666311603,,,,,,,,,,-0.015675,-0.0039875,-0.02365,,,,,,,,,
1736666311613,,,,,,,,,,-0.0114124995,-0.0251625,-0.0279125,,,,,,,,,
1736666311623,,,,,,,,,,-0.014575,-0.0358875,-0.02255,,,,,,,,,
1736666311634,,,,,,,,,,-0.016775,-0.032725,-0.0086624995,,,,,,,,,
1736666311644,,,,,,,,,,-0.00935,-0.0231,-0.0034375,,,,,,,,,
1736666311653,,,,,,,,,,0.001375,-0.00715,-0.0055,,,,,,,,,
1736666311663,,,,,,,,,,0.0108624995,0.003575,-0.0108624995,,,,,,,,,
1736666311673,,,,,,,,,,0.0182875,0.001375,-0.0182875,,,,,,,,,
1736666311683,,,,,,,,,,0.0204875,-0.0125124995,-0.02475,,,,,,,,,
1736666311693,,,,,,,,,,0.0077,-0.0209,-0.029975,,,,,,,,,
1736666311704,,,,,,,,,,-0.00935,-0.022,-0.0279125,,,,,,,,,
1736666311714,,,,,,,,,,-0.016775,-0.0251625,-0.0268125,,,,,,,,,
1736666311724,,,,,,,,,,-0.00935,-0.0284625,-0.02475,,,,,,,,,
1736666310629,,,,,,,,,,,,,-0.130079,0.070367,-0.285154,,,,,,
1736666310639,,,,,,,,,,,,,0.010466,0.046117,-0.069062,,,,,,
1736666310649,,,,,,,,,,,,,-0.056295,0.109097,-0.136258,,,,,,
1736666310659,,,,,,,,,,,,,0.178428,-0.081694,0.017917,,,,,,
1736666310669,,,,,,,,,,,,,0.091124,-0.028751,-0.002921,,,,,,
1736666310679,,,,,,,,,,,,,0.212426,-0.127814,-0.015604,,,,,,
1736666310689,,,,,,,,,,,,,0.190235,-0.110974,-0.034316,,,,,,
1736666310700,,,,,,,,,,,,,0.129807,-0.185832,0.121953,,,,,,
1736666310710,,,,,,,,,,,,,0.141384,-0.133046,0.042812,,,,,,
1736666310719,,,,,,,,,,,,,0.098754,-0.119072,0.215692,,,,,,
1736666310729,,,,,,,,,,,,,0.105509,-0.129437,0.209115,,,,,,
1736666310739,,,,,,,,,,,,,0.022709,-0.067587,0.123438,,,,,,
1736666310750,,,,,,,,,,,,,0.050136,-0.054172,-0.042912,,,,,,
1736666310760,,,,,,,,,,,,,0.012777,-0.044919,-0.005587,,,,,,
1736666310769,,,,,,,,,,,,,-0.025591,-0.028382,-0.006495,,,,,,
1736666310780,,,,,,,,,,,,,0.019241,-0.041756,-0.040703,,,,,,
1736666310790,,,,,,,,,,,,,-0.049403,0.103197,-0.019935,,,,,,
1736666310800,,,,,,,,,,,,,-0.071338,0.053799,0.014263,,,,,,
1736666310811,,,,,,,,,,,,,0.103691,0.015572,0.031324,,,,,,
1736666310821,,,,,,,,,,,,,0.009939,0.061059,0.011994,,,,,,
1736666310830,,,,,,,,,,,,,0.010212,3.31E-4,0.077267,,,,,,
1736666310840,,,,,,,,,,,,,0.09818,-0.006147,0.077484,,,,,,
1736666310850,,,,,,,,,,,,,-0.055771,0.008828,0.029701,,,,,,
1736666310860,,,,,,,,,,,,,-0.030364,0.02972,0.070849,,,,,,
1736666310871,,,,,,,,,,,,,-0.078177,-0.038202,-0.014937,,,,,,
1736666310881,,,,,,,,,,,,,-0.063328,-0.022602,-0.020033,,,,,,
1736666310890,,,,,,,,,,,,,-0.028933,-0.049913,0.046642,,,,,,
1736666310900,,,,,,,,,,,,,-0.057676,-0.047158,-0.009256,,,,,,
1736666310910,,,,,,,,,,,,,-0.06406,-0.112265,0.114573,,,,,,
1736666310920,,,,,,,,,,,,,-0.014195,-0.073807,0.091794,,,,,,
1736666310930,,,,,,,,,,,,,-0.121701,-0.021582,0.04319,,,,,,
1736666310940,,,,,,,,,,,,,-0.147807,-0.059704,0.086462,,,,,,
1736666310950,,,,,,,,,,,,,-0.06558,0.015284,0.043295,,,,,,
1736666310960,,,,,,,,,,,,,-0.078169,0.003852,0.036711,,,,,,
1736666310970,,,,,,,,,,,,,-0.041816,-0.00251,-0.09198,,,,,,
1736666310980,,,,,,,,,,,,,-0.006486,-0.00743,0.002024,,,,,,
1736666310991,,,,,,,,,,,,,-0.051404,0.104576,-0.270593,,,,,,
1736666311001,,,,,,,,,,,,,-0.02018,0.007472,-0.216354,,,,,,
1736666311012,,,,,,,,,,,,,-0.091966,0.156619,-0.101183,,,,,,
1736666311022,,,,,,,,,,,,,-0.06179,0.133631,-0.221861,,,,,,
1736666311031,,,,,,,,,,,,,-0.100333,0.030666,0.090642,,,,,,
1736666311041,,,,,,,,,,,,,-0.078727,0.101591,0.016508,,,,,,
1736666311051,,,,,,,,,,,,,-0.051366,-0.02261,0.139615,,,,,,
1736666311061,,,,,,,,,,,,,-0.061432,-0.022378,0.122748,,,,,,
1736666311071,,,,,,,,,,,,,-0.024208,-0.04803,0.14207,,,,,,
1736666311081,,,,,,,,,,,,,-0.028498,-0.041501,0.146821,,,,,,
1736666311091,,,,,,,,,,,,,0.023793,-0.02412,0.046324,,,,,,
1736666311101,,,,,,,,,,,,,-0.022453,-0.030131,0.077563,,,,,,
1736666311111,,,,,,,,,,,,,0.01604,-0.039267,0.056045,,,,,,
1736666311121,,,,,,,,,,,,,0.081906,-0.025961,0.046281,,,,,,
1736666311132,,,,,,,,,,,,,-0.042379,0.048369,0.046059,,,,,,
1736666311142,,,,,,,,,,,,,-0.02461,-0.008144,0.058833,,,,,,
1736666311151,,,,,,,,,,,,,-0.013286,-0.009546,-0.034332,,,,,,
1736666311161,,,,,,,,,,,,,-0.053155,0.017204,0.028165,,,,,,
1736666311171,,,,,,,,,,,,,0.076219,-0.07929,0.114861,,,,,,
1736666311181,,,,,,,,,,,,,0.025596,-0.061053,-0.010504,,,,,,
1736666311191,,,,,,,,,,,,,-0.010865,-0.086432,0.240503,,,,,,
1736666311201,,,,,,,,,,,,,0.052338,-0.060745,0.223038,,,,,,
1736666311212,,,,,,,,,,,,,0.065258,-0.055352,0.109987,,,,,,
1736666311222,,,,,,,,,,,,,-0.027178,-0.074077,0.200669,,,,,,
1736666311231,,,,,,,,,,,,,0.102742,-0.012129,-0.062986,,,,,,
1736666311242,,,,,,,,,,,,,0.078801,-0.029779,0.013928,,,,,,
1736666311253,,,,,,,,,,,,,0.099993,0.064632,-0.167883,,,,,,
1736666311263,,,,,,,,,,,,,0.118456,0.005176,-0.101931,,,,,,
1736666311272,,,,,,,,,,,,,-0.073666,0.155053,-0.170689,,,,,,
1736666311282,,,,,,,,,,,,,0.009316,0.072395,-0.232765,,,,,,
1736666311293,,,,,,,,,,,,,-0.060489,0.108048,-0.10199,,,,,,
1736666311303,,,,,,,,,,,,,-0.071124,0.148394,-0.074036,,,,,,
1736666311312,,,,,,,,,,,,,0.051243,0.084326,-0.093803,,,,,,
1736666311322,,,,,,,,,,,,,-0.04336,0.053218,-0.131402,,,,,,
1736666311332,,,,,,,,,,,,,-0.026377,0.01511,-0.035009,,,,,,
1736666311342,,,,,,,,,,,,,0.049311,0.035922,-0.034879,,,,,,
1736666311352,,,,,,,,,,,,,0.001972,-0.012714,-0.010663,,,,,,
1736666311362,,,,,,,,,,,,,-0.042639,-0.001918,-0.06107,,,,,,
1736666311373,,,,,,,,,,,,,0.049,-0.012111,0.032526,,,,,,
1736666311383,,,,,,,,,,,,,0.013097,-0.018837,0.010859,,,,,,
1736666311392,,,,,,,,,,,,,0.123053,-0.032798,-0.082571,,,,,,
1736666311402,,,,,,,,,,,,,0.08378,-0.03269,0.024886,,,,,,
1736666311413,,,,,,,,,,,,,-0.002934,0.057528,-0.198173,,,,,,
1736666311422,,,,,,,,,,,,,0.077917,-0.004557,-0.170991,,,,,,
1736666311432,,,,,,,,,,,,,-0.016114,0.043747,-0.12574,,,,,,
1736666311442,,,,,,,,,,,,,-0.080211,0.079959,-0.185327,,,,,,
1736666311453,,,,,,,,,,,,,0.058032,-0.083719,-0.088704,,,,,,
1736666311463,,,,,,,,,,,,,0.05373,-0.039416,-0.106597,,,,,,
1736666311473,,,,,,,,,,,,,0.081846,-0.064932,-0.008895,,,,,,
1736666311483,,,,,,,,,,,,,0.071348,-0.07428,-0.024004,,,,,,
1736666311494,,,,,,,,,,,,,0.022501,-0.001974,-0.113363,,,,,,
1736666311504,,,,,,,,,,,,,0.03165,-0.024755,-0.070178,,,,,,
1736666311513,,,,,,,,,,,,,0.033092,-0.010494,-0.247757,,,,,,
1736666311523,,,,,,,,,,,,,0.031083,-0.005333,-0.176117,,,,,,
1736666311534,,,,,,,,,,,,,0.019388,0.010555,-0.277003,,,,,,
1736666311544,,,,,,,,,,,,,0.007878,4.67E-4,-0.281816,,,,,,
1736666311553,,,,,,,,,,,,,0.061864,-0.051918,-0.207649,,,,,,
1736666311563,,,,,,,,,,,,,0.079712,0.018303,-0.237122,,,,,,
1736666311573,,,,,,,,,,,,,0.032872,-0.111883,-0.062304,,,,,,
1736666311583,,,,,,,,,,,,,0.01185,-0.088287,-0.142692,,,,,,
1736666311594,,,,,,,,,,,,,-0.030056,-0.051177,-0.019161,,,,,,
1736666311604,,,,,,,,,,,,,0.027516,-0.081373,-0.012604,,,,,,
1736666311613,,,,,,,,,,,,,-0.09187,0.019921,-0.157273,,,,,,
1736666311623,,,,,,,,,,,,,-0.08209,-0.001025,-0.075562,,,,,,
1736666311633,,,,,,,,,,,,,0.04413,-0.045514,-0.147428,,,,,,
1736666311643,,,,,,,,,,,,,3.5E-5,0.003309,-0.143138,,,,,,
1736666311654,,,,,,,,,,,,,0.078645,-0.058376,-0.123782,,,,,,
1736666311664,,,,,,,,,,,,,0.050958,-0.062856,-0.145758,,,,,,
1736666311673,,,,,,,,,,,,,-0.017531,-0.005616,-0.244246,,,,,,
1736666311683,,,,,,,,,,,,,0.021762,-0.035867,-0.148002,,,,,,
1736666311693,,,,,,,,,,,,,-0.072576,0.022489,-0.241542,,,,,,
1736666311703,,,,,,,,,,,,,-0.089228,-0.019221,-0.293732,,,,,,
1736666311715,,,,,,,,,,,,,-0.063892,0.062574,-0.229018,,,,,,
1736666311725,,,,,,,,,,,,,-0.034091,0.058229,-0.213799,,,,,,
1736666310629,,,,,,,,,,,,,,,,0.040432,-0.05642,-0.927427,,,
1736666310639,,,,,,,,,,,,,,,,0.040242,-0.056375,-0.927399,,,
1736666310649,,,,,,,,,,,,,,,,0.04056,-0.056508,-0.927343,,,
1736666310659,,,,,,,,,,,,,,,,0.039649,-0.056211,-0.927243,,,
1736666310669,,,,,,,,,,,,,,,,0.039054,-0.055866,-0.92179,,,
1736666310679,,,,,,,,,,,,,,,,0.038041,-0.055579,-0.922011,,,
1736666310690,,,,,,,,,,,,,,,,0.037027,-0.055096,-0.916733,,,
1736666310700,,,,,,,,,,,,,,,,0.036121,-0.054164,-0.911591,,,
1736666310710,,,,,,,,,,,,,,,,0.035312,-0.053416,-0.906687,,,
1736666310719,,,,,,,,,,,,,,,,0.034658,-0.052623,-0.901887,,,
1736666310729,,,,,,,,,,,,,,,,0.033906,-0.051864,-0.897536,,,
1736666310739,,,,,,,,,,,,,,,,0.033508,-0.051309,-0.89344,,,
1736666310750,,,,,,,,,,,,,,,,0.032996,-0.050925,-0.889296,,,
1736666310760,,,,,,,,,,,,,,,,0.032604,-0.050475,-0.885606,,,
1736666310769,,,,,,,,,,,,,,,,0.032421,-0.049997,-0.882032,,,
1736666310780,,,,,,,,,,,,,,,,0.032103,-0.049522,-0.878731,,,
1736666310790,,,,,,,,,,,,,,,,0.032391,-0.04945,-0.875508,,,
1736666310800,,,,,,,,,,,,,,,,0.032664,-0.049186,-0.872375,,,
1736666310811,,,,,,,,,,,,,,,,0.032302,-0.049052,-0.869468,,,
1736666310821,,,,,,,,,,,,,,,,0.032519,-0.048937,-0.866474,,,
1736666310830,,,,,,,,,,,,,,,,0.032723,-0.048625,-0.863527,,,
1736666310840,,,,,,,,,,,,,,,,0.032727,-0.048475,-0.860709,,,
1736666310850,,,,,,,,,,,,,,,,0.033338,-0.048171,-0.857967,,,
1736666310860,,,,,,,,,,,,,,,,0.03383,-0.047987,-0.855338,,,
1736666310871,,,,,,,,,,,,,,,,0.034255,-0.047514,-0.852882,,,
1736666310881,,,,,,,,,,,,,,,,0.034553,-0.047074,-0.850545,,,
1736666310890,,,,,,,,,,,,,,,,0.034571,-0.046534,-0.848278,,,
1736666310900,,,,,,,,,,,,,,,,0.034678,-0.045945,-0.846154,,,
1736666310910,,,,,,,,,,,,,,,,0.034632,-0.04508,-0.844151,,,
1736666310920,,,,,,,,,,,,,,,,0.034588,-0.044466,-0.842241,,,
1736666310931,,,,,,,,,,,,,,,,0.035098,-0.043945,-0.840443,,,
1736666310941,,,,,,,,,,,,,,,,0.035643,-0.043305,-0.838745,,,
1736666310950,,,,,,,,,,,,,,,,0.036171,-0.043076,-0.837224,,,
1736666310960,,,,,,,,,,,,,,,,0.036757,-0.042808,-0.835697,,,
1736666310970,,,,,,,,,,,,,,,,0.037268,-0.042656,-0.834287,,,
1736666310980,,,,,,,,,,,,,,,,0.037595,-0.042561,-0.832978,,,
1736666310991,,,,,,,,,,,,,,,,0.038415,-0.042841,-0.831699,,,
1736666311001,,,,,,,,,,,,,,,,0.038793,-0.042763,-0.830501,,,
1736666311012,,,,,,,,,,,,,,,,0.03968,-0.042898,-0.82938,,,
1736666311022,,,,,,,,,,,,,,,,0.040408,-0.042956,-0.828287,,,
1736666311032,,,,,,,,,,,,,,,,0.040866,-0.042445,-0.827146,,,
1736666311042,,,,,,,,,,,,,,,,0.041499,-0.042261,-0.826039,,,
1736666311051,,,,,,,,,,,,,,,,0.041734,-0.041747,-0.824889,,,
1736666311061,,,,,,,,,,,,,,,,0.04211,-0.041279,-0.823786,,,
1736666311071,,,,,,,,,,,,,,,,0.042383,-0.040842,-0.822779,,,
1736666311081,,,,,,,,,,,,,,,,0.042715,-0.040474,-0.821817,,,
1736666311091,,,,,,,,,,,,,,,,0.042923,-0.040358,-0.820854,,,
1736666311101,,,,,,,,,,,,,,,,0.043187,-0.040139,-0.819972,,,
1736666311112,,,,,,,,,,,,,,,,0.043261,-0.039955,-0.819151,,,
1736666311122,,,,,,,,,,,,,,,,0.043125,-0.039954,-0.818392,,,
1736666311132,,,,,,,,,,,,,,,,0.043557,-0.039975,-0.817658,,,
1736666311142,,,,,,,,,,,,,,,,0.043775,-0.039853,-0.816975,,,
1736666311152,,,,,,,,,,,,,,,,0.043983,-0.039783,-0.816246,,,
1736666311162,,,,,,,,,,,,,,,,0.044346,-0.039707,-0.815563,,,
1736666311172,,,,,,,,,,,,,,,,0.044034,-0.039491,-0.81485,,,
1736666311182,,,,,,,,,,,,,,,,0.044002,-0.039226,-0.814177,,,
1736666311191,,,,,,,,,,,,,,,,0.043925,-0.038753,-0.813604,,,
1736666311201,,,,,,,,,,,,,,,,0.043716,-0.038569,-0.81304,,,
1736666311212,,,,,,,,,,,,,,,,0.043474,-0.038579,-0.81268,,,
1736666311222,,,,,,,,,,,,,,,,0.0434,-0.038425,-0.81228,,,
1736666311231,,,,,,,,,,,,,,,,0.043167,-0.038864,-0.812133,,,
1736666311242,,,,,,,,,,,,,,,,0.042945,-0.039185,-0.811986,,,
1736666311253,,,,,,,,,,,,,,,,0.042976,-0.039943,-0.812074,,,
1736666311263,,,,,,,,,,,,,,,,0.042818,-0.040509,-0.812135,,,
1736666311272,,,,,,,,,,,,,,,,0.043767,-0.041176,-0.812178,,,
1736666311282,,,,,,,,,,,,,,,,0.044313,-0.041639,-0.812204,,,
1736666311292,,,,,,,,,,,,,,,,0.045077,-0.041951,-0.812117,,,
1736666311302,,,,,,,,,,,,,,,,0.04586,-0.042352,-0.812,,,
1736666311312,,,,,,,,,,,,,,,,0.04596,-0.042773,-0.811739,,,
1736666311323,,,,,,,,,,,,,,,,0.046221,-0.04288,-0.811508,,,
1736666311332,,,,,,,,,,,,,,,,0.046294,-0.04284,-0.811224,,,
1736666311342,,,,,,,,,,,,,,,,0.046218,-0.04302,-0.810984,,,
1736666311353,,,,,,,,,,,,,,,,0.0462,-0.04294,-0.810704,,,
1736666311363,,,,,,,,,,,,,,,,0.046419,-0.042794,-0.810449,,,
1736666311372,,,,,,,,,,,,,,,,0.046324,-0.042759,-0.810159,,,
1736666311382,,,,,,,,,,,,,,,,0.04636,-0.042665,-0.809901,,,
1736666311393,,,,,,,,,,,,,,,,0.046025,-0.042824,-0.80956,,,
1736666311403,,,,,,,,,,,,,,,,0.045739,-0.042926,-0.809291,,,
1736666311412,,,,,,,,,,,,,,,,0.046023,-0.04324,-0.809002,,,
1736666311422,,,,,,,,,,,,,,,,0.045801,-0.043463,-0.808741,,,
1736666311432,,,,,,,,,,,,,,,,0.045923,-0.043575,-0.80857,,,
1736666311442,,,,,,,,,,,,,,,,0.046356,-0.043642,-0.808299,,,
1736666311453,,,,,,,,,,,,,,,,0.045883,-0.043383,-0.808192,,,
1736666311463,,,,,,,,,,,,,,,,0.045627,-0.043271,-0.80806,,,
1736666311473,,,,,,,,,,,,,,,,0.045249,-0.043123,-0.80816,,,
1736666311483,,,,,,,,,,,,,,,,0.044914,-0.042994,-0.808171,,,
1736666311494,,,,,,,,,,,,,,,,0.044925,-0.043087,-0.80849,,,
1736666311504,,,,,,,,,,,,,,,,0.044753,-0.043133,-0.8088,,,
1736666311513,,,,,,,,,,,,,,,,0.044557,-0.04331,-0.809019,,,
1736666311523,,,,,,,,,,,,,,,,0.044266,-0.043467,-0.809277,,,
1736666311533,,,,,,,,,,,,,,,,0.044059,-0.043665,-0.809471,,,
1736666311543,,,,,,,,,,,,,,,,0.043908,-0.043749,-0.809689,,,
1736666311553,,,,,,,,,,,,,,,,0.04351,-0.043671,-0.809737,,,
1736666311563,,,,,,,,,,,,,,,,0.043348,-0.043811,-0.80976,,,
1736666311573,,,,,,,,,,,,,,,,0.042986,-0.04332,-0.80975,,,
1736666311583,,,,,,,,,,,,,,,,0.042807,-0.042895,-0.809738,,,
1736666311594,,,,,,,,,,,,,,,,0.042777,-0.042533,-0.809823,,,
1736666311604,,,,,,,,,,,,,,,,0.042416,-0.042273,-0.80994,,,
1736666311613,,,,,,,,,,,,,,,,0.042684,-0.042242,-0.810164,,,
1736666311623,,,,,,,,,,,,,,,,0.042782,-0.042149,-0.810367,,,
1736666311633,,,,,,,,,,,,,,,,0.042392,-0.042162,-0.810456,,,
1736666311643,,,,,,,,,,,,,,,,0.042329,-0.042254,-0.810519,,,
1736666311654,,,,,,,,,,,,,,,,0.04194,-0.042285,-0.810637,,,
1736666311664,,,,,,,,,,,,,,,,0.041704,-0.042264,-0.810658,,,
1736666311673,,,,,,,,,,,,,,,,0.041892,-0.042371,-0.810767,,,
1736666311683,,,,,,,,,,,,,,,,0.041788,-0.042466,-0.810889,,,
1736666311693,,,,,,,,,,,,,,,,0.042111,-0.042578,-0.811015,,,
1736666311703,,,,,,,,,,,,,,,,0.042344,-0.042464,-0.811138,,,
1736666311715,,,,,,,,,,,,,,,,0.042661,-0.042633,-0.811224,,,
1736666311725,,,,,,,,,,,,,,,,0.042874,-0.04288,-0.811326,,,
1736666310704,,,,,,,,,,,,,,,,,,,171.0,,
1736666310824,,,,,,,,,,,,,,,,,,,163.0,,
1736666311024,,,,,,,,,,,,,,,,,,,160.0,,
1736666311224,,,,,,,,,,,,,,,,,,,165.0,,
1736666311425,,,,,,,,,,,,,,,,,,,169.0,,
1736666311625,,,,,,,,,,,,,,,,,,,169.0,,
1736666310704,,,,,,,,,,,,,,,,,,,,,5.0
1736666310704,,,,,,,,,,,,,,,,,,,,,5.0
1736666311734,-0.22305001,1.2250501,9.48795,,,,,,,,,,,,,,,,,,
1736666311744,-0.21405001,1.248,9.47805,,,,,,,,,,,,,,,,,,
1736666311755,-0.21405001,1.2100501,9.47295,,,,,,,,,,,,,,,,,,
1736666311765,-0.216,1.19805,9.49695,,,,,,,,,,,,,,,,,,
1736666311775,-0.192,1.1689501,9.46395,,,,,,,,,,,,,,,,,,
1736666311785,-0.18495001,1.1380501,9.399,,,,,,,,,,,,,,,,,,
1736666311794,-0.171,1.12905,9.406051,,,,,,,,,,,,,,,,,,
1736666311804,-0.147,1.11,9.49695,,,,,,,,,,,,,,,,,,
1736666311815,-0.112950005,1.08105,9.48495,,,,,,,,,,,,,,,,,,
1736666311825,-0.112950005,1.026,9.46395,,,,,,,,,,,,,,,,,,
1736666311834,-0.14895001,0.99495006,9.50205,,,,,,,,,,,,,,,,,,
1736666311844,-0.13995,1.00695,9.588,,,,,,,,,,,,,,,,,,
1736666311854,-0.11805001,1.0189501,9.592951,,,,,,,,,,,,,,,,,,
1736666311864,-0.109050006,1.0350001,9.526051,,,,,,,,,,,,,,,,,,
1736666311875,-0.156,1.0639501,9.438001,,,,,,,,,,,,,,,,,,
1736666311885,-0.18,1.11195,9.460951,,,,,,,,,,,,,,,,,,
1736666311895,-0.20400001,1.16205,9.406051,,,,,,,,,,,,,,,,,,
1736666311905,-0.23295002,1.19595,9.358951,,,,,,,,,,,,,,,,,,
1736666311915,-0.19995001,1.1890501,9.459001,,,,,,,,,,,,,,,,,,
1736666311925,-0.19695,1.143,9.50895,,,,,,,,,,,,,,,,,,
1736666311934,-0.20895001,1.143,9.519,,,,,,,,,,,,,,,,,,
1736666311945,-0.19005,1.107,9.49995,,,,,,,,,,,,,,,,,,
1736666311955,-0.22800002,1.2079501,8.808001,,,,,,,,,,,,,,,,,,
1736666311965,-0.28305,1.44,8.33895,,,,,,,,,,,,,,,,,,
1736666311975,-0.39105,1.4640001,8.51295,,,,,,,,,,,,,,,,,,
1736666311985,-0.33795002,1.2529501,9.33195,,,,,,,,,,,,,,,,,,
1736666311996,-0.279,0.87000006,9.568951,,,,,,,,,,,,,,,,,,
1736666312006,-0.147,1.19805,9.892051,,,,,,,,,,,,,,,,,,
1736666312016,-0.15195,1.0189501,10.077001,,,,,,,,,,,,,,,,,,
1736666312026,-0.31395,0.86505,9.81105,,,,,,,,,,,,,,,,,,
1736666312036,-0.44400004,1.07895,9.7890005,,,,,,,,,,,,,,,,,,
1736666312046,-0.32895002,1.1580001,9.43995,,,,,,,,,,,,,,,,,,
1736666312055,-0.19005,1.2079501,9.15495,,,,,,,,,,,,,,,,,,
1736666312065,-0.192,1.1770501,9.214951,,,,,,,,,,,,,,,,,,
1736666312076,-0.28305,1.1530501,9.27,,,,,,,,,,,,,,,,,,
1736666312086,-0.28095,1.16205,9.226951,,,,,,,,,,,,,,,,,,
1736666312095,-0.20205002,1.167,9.19095,,,,,,,,,,,,,,,,,,
1736666312105,-0.19005,1.1340001,9.16905,,,,,,,,,,,,,,,,,,
1736666312116,-0.15900001,1.0690501,9.229051,,,,,,,,,,,,,,,,,,
1736666312126,-0.16395001,1.014,9.37005,,,,,,,,,,,,,,,,,,
1736666312136,-0.21195,1.0189501,9.47595,,,,,,,,,,,,,,,,,,
1736666312146,-0.11805001,1.0500001,9.391951,,,,,,,,,,,,,,,,,,
1736666312156,-0.03705,1.07895,9.31995,,,,,,,,,,,,,,,,,,
1736666312166,-0.10095,1.0189501,9.24405,,,,,,,,,,,,,,,,,,
1736666312177,-0.08505,1.0189501,9.35595,,,,,,,,,,,,,,,,,,
1736666312187,-0.034050003,0.97605,9.435,,,,,,,,,,,,,,,,,,
1736666312197,-0.010050001,0.93000007,9.505051,,,,,,,,,,,,,,,,,,
1736666312207,-0.043950003,0.88005006,9.47295,,,,,,,,,,,,,,,,,,
1736666312216,-0.06795,0.91305006,9.406051,,,,,,,,,,,,,,,,,,
1736666312226,-0.094050005,0.97605,9.361051,,,,,,,,,,,,,,,,,,
1736666312236,-0.16095,1.0350001,9.379951,,,,,,,,,,,,,,,,,,
1736666312246,-0.24000001,1.1020501,9.342,,,,,,,,,,,,,,,,,,
1736666312256,-0.19500001,1.15995,9.282001,,,,,,,,,,,,,,,,,,
1736666312266,-0.14895001,1.19295,9.189,,,,,,,,,,,,,,,,,,
1736666312276,-0.19695,1.179,9.186001,,,,,,,,,,,,,,,,,,
1736666312286,-0.28800002,1.1340001,9.238951,,,,,,,,,,,,,,,,,,
1736666312296,-0.30495003,1.107,9.247951,,,,,,,,,,,,,,,,,,
1736666312306,-0.19695,1.0830001,9.238951,,,,,,,,,,,,,,,,,,
1736666312316,-0.10095,1.0639501,9.30795,,,,,,,,,,,,,,,,,,
1736666312326,-0.15405001,0.98505,9.346951,,,,,,,,,,,,,,,,,,
1736666312337,-0.16395001,0.95595,9.32295,,,,,,,,,,,,,,,,,,
1736666312347,-0.156,0.95400006,9.258,,,,,,,,,,,,,,,,,,
1736666312356,-0.15900001,0.98805004,9.19095,,,,,,,,,,,,,,,,,,
1736666312366,-0.18300001,1.062,9.177,,,,,,,,,,,,,,,,,,
1736666312376,-0.24705002,1.0999501,9.21195,,,,,,,,,,,,,,,,,,
1736666312386,-0.20205002,1.11705,9.196051,,,,,,,,,,,,,,,,,,
1736666312396,-0.171,1.1190001,9.234,,,,,,,,,,,,,,,,,,
1736666312407,-0.21195,1.1190001,9.28695,,,,,,,,,,,,,,,,,,
1736666312417,-0.30495003,1.131,9.32295,,,,,,,,,,,,,,,,,,
1736666312427,-0.28800002,1.09305,9.397051,,,,,,,,,,,,,,,,,,
1736666312437,-0.27600002,1.0860001,9.460951,,,,,,,,,,,,,,,,,,
1736666312447,-0.21195,1.0900501,9.46395,,,,,,,,,,,,,,,,,,
1736666312458,-0.13005,1.1050501,9.394051,,,,,,,,,,,,,,,,,,
1736666312468,-0.12795001,1.1359501,9.31305,,,,,,,,,,,,,,,,,,
1736666312477,-0.13695,1.19805,9.22395,,,,,,,,,,,,,,,,,,
1736666312487,-0.192,1.3039501,9.141001,,,,,,,,,,,,,,,,,,
1736666312497,-0.216,1.3750501,9.02805,,,,,,,,,,,,,,,,,,
1736666312507,-0.15405001,1.3590001,8.98005,,,,,,,,,,,,,,,,,,
1736666312517,-0.12105001,1.2390001,8.986951,,,,,,,,,,,,,,,,,,
1736666312527,-0.042000003,1.146,9.066,,,,,,,,,,,,,,,,,,
1736666312538,-0.00795,1.11705,9.162001,,,,,,,,,,,,,,,,,,
1736666312548,-0.003,1.0900501,9.19095,,,,,,,,,,,,,,,,,,
1736666312557,-0.03195,1.12605,9.13605,,,,,,,,,,,,,,,,,,
1736666312567,-0.027,1.18605,8.99505,,,,,,,,,,,,,,,,,,
1736666312577,-0.025050001,1.2220501,8.89605,,,,,,,,,,,,,,,,,,
1736666312588,0.028950002,1.19595,8.949,,,,,,,,,,,,,,,,,,
1736666312598,0.04095,1.1550001,9.057,,,,,,,,,,,,,,,,,,
1736666312608,0.025050001,1.12395,9.141001,,,,,,,,,,,,,,,,,,
1736666312618,0.060000002,1.1190001,9.17205,,,,,,,,,,,,,,,,,,
1736666312627,0.036000002,1.1359501,9.073951,,,,,,,,,,,,,,,,,,
1736666312638,0.05595,1.19295,9.0709505,,,,,,,,,,,,,,,,,,
1736666312648,0.052950002,1.24605,8.99895,,,,,,,,,,,,,,,,,,
1736666312658,0.058050003,1.27695,8.944051,,,,,,,,,,,,,,,,,,
1736666312668,0.08895,1.31595,8.97795,,,,,,,,,,,,,,,,,,
1736666312679,0.03195,1.3060501,9.01605,,,,,,,,,,,,,,,,,,
1736666312689,0.072000004,1.3039501,9.13605,,,,,,,,,,,,,,,,,,
1736666312699,0.063,1.30095,9.22395,,,,,,,,,,,,,,,,,,
1736666312709,-0.054,1.2940501,9.291,,,,,,,,,,,,,,,,,,
1736666312718,-0.07305,1.31805,9.330001,,,,,,,,,,,,,,,,,,
1736666312728,-0.00795,1.27995,9.315001,,,,,,,,,,,,,,,,,,
1736666312739,0.02205,1.2750001,9.295951,,,,,,,,,,,,,,,,,,
1736666312749,0.11805001,1.284,9.258,,,,,,,,,,,,,,,,,,
1736666312759,0.08895,1.26495,9.14805,,,,,,,,,,,,,,,,,,
1736666312769,0.076950006,1.3110001,9.0400505,,,,,,,,,,,,,,,,,,
1736666312778,0.08400001,1.3950001,9.019051,,,,,,,,,,,,,,,,,,
1736666312788,-0.025050001,1.4419501,8.96805,,,,,,,,,,,,,,,,,,
1736666312799,-0.058050003,1.488,8.997001,,,,,,,,,,,,,,,,,,
1736666312809,-0.079950005,1.47405,9.081,,,,,,,,,,,,,,,,,,
1736666312818,-0.12495001,1.27005,9.057,,,,,,,,,,,,,,,,,,
1736666312828,-0.025050001,1.5120001,9.250951,,,,,,,,,,,,,,,,,,
1736666312838,-0.08505,1.58595,9.42105,,,,,,,,,,,,,,,,,,
1736666312848,-0.20205002,1.3920001,9.24405,,,,,,,,,,,,,,,,,,
1736666312858,-0.12795001,1.43805,9.184051,,,,,,,,,,,,,,,,,,
1736666312869,-0.039,1.4899501,9.121051,,,,,,,,,,,,,,,,,,
1736666312879,-0.030000001,1.524,9.052051,,,,,,,,,,,,,,,,,,
1736666312889,-0.11100001,1.5690001,9.033,,,,,,,,,,,,,,,,,,
1736666312899,-0.08895,1.6200001,8.916,,,,,,,,,,,,,,,,,,
1736666312910,-0.07305,1.6510501,8.82195,,,,,,,,,,,,,,,,,,
1736666312919,-0.087000005,1.70595,8.82495,,,,,,,,,,,,,,,,,,
1736666312929,-0.16095,1.7560501,8.82195,,,,,,,,,,,,,,,,,,
1736666312939,-0.18300001,1.7389501,8.84595,,,,,,,,,,,,,,,,,,
1736666312949,-0.15405001,1.6870501,8.97105,,,,,,,,,,,,,,,,,,
1736666312959,-0.11595,1.62195,9.088051,,,,,,,,,,,,,,,,,,
1736666312969,-0.05595,1.5790501,9.174001,,,,,,,,,,,,,,,,,,
1736666312979,-0.079950005,1.5690001,9.20505,,,,,,,,,,,,,,,,,,
1736666312989,-0.075,1.5330001,9.150001,,,,,,,,,,,,,,,,,,
1736666313000,-0.063,1.5769501,9.184051,,,,,,,,,,,,,,,,,,
1736666313010,-0.064950004,1.5880501,9.196051,,,,,,,,,,,,,,,,,,
1736666313019,-0.04605,1.5769501,9.102,,,,,,,,,,,,,,,,,,
1736666313029,-0.051000003,1.5840001,9.01605,,,,,,,,,,,,,,,,,,
1736666313039,-0.051000003,1.62405,8.986951,,,,,,,,,,,,,,,,,,
1736666313049,-0.058050003,1.6560001,8.956051,,,,,,,,,,,,,,,,,,
1736666313059,-0.049050003,1.677,8.944051,,,,,,,,,,,,,,,,,,
1736666313069,-0.07305,1.6320001,8.923051,,,,,,,,,,,,,,,,,,
1736666313079,-0.03705,1.6000501,8.93505,,,,,,,,,,,,,,,,,,
1736666313089,-0.06105,1.5670501,9.019051,,,,,,,,,,,,,,,,,,
1736666313099,-0.063,1.55505,9.118951,,,,,,,,,,,,,,,,,,
1736666313110,-0.094050005,1.605,9.186001,,,,,,,,,,,,,,,,,,
1736666313120,-0.10395,1.4860501,9.066,,,,,,,,,,,,,,,,,,
1736666313130,-0.09900001,1.6200001,8.986951,,,,,,,,,,,,,,,,,,
1736666313140,-0.03195,1.78005,9.22395,,,,,,,,,,,,,,,,,,
1736666313150,-0.17295001,1.6720501,9.21195,,,,,,,,,,,,,,,,,,
1736666313160,-0.26700002,1.6819501,9.14805,,,,,,,,,,,,,,,,,,
1736666313170,-0.18300001,1.713,9.10995,,,,,,,,,,,,,,,,,,
1736666313180,-0.15405001,1.6560001,9.01395,,,,,,,,,,,,,,,,,,
1736666313190,-0.16095,1.7389501,8.889001,,,,,,,,,,,,,,,,,,
1736666313201,-0.12105001,1.794,8.93505,,,,,,,,,,,,,,,,,,
1736666313211,-0.17805001,1.7680501,8.937,,,,,,,,,,,,,,,,,,
1736666313220,-0.31905,1.7730001,8.98005,,,,,,,,,,,,,,,,,,
1736666313230,-0.28095,1.794,9.12405,,,,,,,,,,,,,,,,,,
1736666313240,-0.23295002,1.7080501,9.198001,,,,,,,,,,,,,,,,,,
1736666313250,-0.192,1.605,9.14805,,,,,,,,,,,,,,,,,,
1736666313261,-0.08895,1.6650001,9.17895,,,,,,,,,,,,,,,,,,
1736666313271,-0.064950004,1.65795,9.19095,,,,,,,,,,,,,,,,,,
1736666313281,-0.17295001,1.6390501,9.094951,,,,,,,,,,,,,,,,,,
1736666313291,-0.18,1.7029501,9.031051,,,,,,,,,,,,,,,,,,
1736666313300,-0.25695002,1.7989501,8.95905,,,,,,,,,,,,,,,,,,
1736666313310,-0.29295,1.8420001,8.920051,,,,,,,,,,,,,,,,,,
1736666313321,-0.20895001,1.8280501,8.973001,,,,,,,,,,,,,,,,,,
1736666313331,-0.20700002,1.8210001,8.905951,,,,,,,,,,,,,,,,,,
1736666313341,-0.15900001,1.7850001,8.923051,,,,,,,,,,,,,,,,,,
1736666313351,-0.16800001,1.7700001,8.98995,,,,,,,,,,,,,,,,,,
1736666313362,-0.21195,1.7820001,8.96805,,,,,,,,,,,,,,,,,,
1736666313372,-0.19005,1.8040501,8.973001,,,,,,,,,,,,,,,,,,
1736666313382,-0.18495001,1.81605,9.078,,,,,,,,,,,,,,,,,,
1736666313392,-0.3,1.8060001,9.114,,,,,,,,,,,,,,,,,,
1736666313401,-0.312,1.797,9.093,,,,,,,,,,,,,,,,,,
1736666313411,-0.24705002,1.8330001,9.02805,,,,,,,,,,,,,,,,,,
1736666313421,-0.23805001,1.8139501,9.033,,,,,,,,,,,,,,,,,,
1736666313431,-0.22605,1.7820001,9.02805,,,,,,,,,,,,,,,,,,
1736666313442,-0.20700002,1.7680501,8.97105,,,,,,,,,,,,,,,,,,
1736666313452,-0.22605,1.8019501,8.997001,,,,,,,,,,,,,,,,,,
1736666313461,-0.25500003,1.866,9.049951,,,,,,,,,,,,,,,,,,
1736666313471,-0.22095,1.9120501,9.045,,,,,,,,,,,,,,,,,,
1736666313481,-0.28095,1.9210501,8.940001,,,,,,,,,,,,,,,,,,
1736666313491,-0.3,1.917,8.85795,,,,,,,,,,,,,,,,,,
1736666313501,-0.30705002,1.9069501,8.88,,,,,,,,,,,,,,,,,,
1736666313511,-0.303,1.917,9.00405,,,,,,,,,,,,,,,,,,
1736666313521,-0.26700002,1.8970501,9.174001,,,,,,,,,,,,,,,,,,
1736666313531,-0.24300002,1.881,9.208051,,,,,,,,,,,,,,,,,,
1736666313542,-0.19695,1.8420001,9.117001,,,,,,,,,,,,,,,,,,
1736666313552,-0.15405001,1.845,9.066,,,,,,,,,,,,,,,,,,
1736666313561,-0.16095,1.8690001,8.97105,,,,,,,,,,,,,,,,,,
1736666313572,-0.28800002,1.8829501,8.808001,,,,,,,,,,,,,,,,,,
1736666313582,-0.26700002,1.9260001,8.82495,,,,,,,,,,,,,,,,,,
1736666313592,-0.26700002,1.93305,8.962951,,,,,,,,,,,,,,,,,,
1736666313602,-0.32595003,1.8420001,9.02295,,,,,,,,,,,,,,,,,,
1736666313612,-0.27600002,1.8610501,9.009001,,,,,,,,,,,,,,,,,,
1736666313622,-0.24000001,1.9909501,9.078,,,,,,,,,,,,,,,,,,
1736666313632,-0.28605002,1.9860001,9.0070505,,,,,,,,,,,,,,,,,,
1736666313643,-0.27405003,1.9740001,8.97105,,,,,,,,,,,,,,,,,,
1736666313653,-0.303,1.9860001,8.928,,,,,,,,,,,,,,,,,,
1736666313663,-0.279,1.9600501,8.956051,,,,,,,,,,,,,,,,,,
1736666313673,-0.216,1.9570501,9.069,,,,,,,,,,,,,,,,,,
1736666313682,-0.24300002,1.9720501,9.153001,,,,,,,,,,,,,,,,,,
1736666313692,-0.25500003,2.01195,9.102,,,,,,,,,,,,,,,,,,
1736666313703,-0.28095,2.05305,9.009001,,,,,,,,,,,,,,,,,,
1736666313713,-0.26700002,2.0269501,8.85105,,,,,,,,,,,,,,,,,,
1736666313723,-0.30705002,1.9980001,8.72595,,,,,,,,,,,,,,,,,,
1736666313733,-0.27405003,1.9620001,8.773951,,,,,,,,,,,,,,,,,,
1736666313742,-0.33105,1.95,8.85105,,,,,,,,,,,,,,,,,,
1736666313752,-0.32895002,1.9240501,9.04695,,,,,,,,,,,,,,,,,,
1736666313763,-0.26700002,1.9189501,9.21195,,,,,,,,,,,,,,,,,,
1736666313773,-0.24000001,1.8880501,9.241051,,,,,,,,,,,,,,,,,,
1736666313783,-0.20700002,1.8589501,9.121051,,,,,,,,,,,,,,,,,,
1736666313793,-0.192,1.8730501,8.96595,,,,,,,,,,,,,,,,,,
1736666313803,-0.252,1.9279501,8.805,,,,,,,,,,,,,,,,,,
1736666313813,-0.31395,1.96395,8.83905,,,,,,,,,,,,,,,,,,
1736666313824,-0.35295,2.01,9.02295,,,,,,,,,,,,,,,,,,
1736666313834,-0.38895002,2.0359502,9.177,,,,,,,,,,,,,,,,,,
1736666313844,-0.33105,2.04795,9.247951,,,,,,,,,,,,,,,,,,
1736666313854,-0.252,2.043,9.23595,,,,,,,,,,,,,,,,,,
1736666313863,-0.291,2.043,9.118951,,,,,,,,,,,,,,,,,,
1736666313873,-0.32895002,2.04795,8.962951,,,,,,,,,,,,,,,,,,
1736666313883,-0.30495003,2.0719502,8.925,,,,,,,,,,,,,,,,,,
1736666313893,-0.303,2.046,8.953951,,,,,,,,,,,,,,,,,,
1736666313903,-0.34800002,2.0050502,8.961,,,,,,,,,,,,,,,,,,
1736666313913,-0.26205,2.091,9.061951,,,,,,,,,,,,,,,,,,
1736666313924,-0.20400001,2.05095,9.078,,,,,,,,,,,,,,,,,,
1736666313933,-0.24300002,2.02905,9.073951,,,,,,,,,,,,,,,,,,
1736666313943,-0.26895002,2.046,9.01095,,,,,,,,,,,,,,,,,,
1736666313953,-0.25905,2.0389502,8.96805,,,,,,,,,,,,,,,,,,
1736666313963,-0.29805002,2.05095,9.00405,,,,,,,,,,,,,,,,,,
1736666313973,-0.29805002,2.0389502,9.0709505,,,,,,,,,,,,,,,,,,
1736666313983,-0.23805001,1.9980001,9.165,,,,,,,,,,,,,,,,,,
1736666313993,-0.231,1.9810501,9.17895,,,,,,,,,,,,,,,,,,
1736666314003,-0.20400001,2.0050502,9.114,,,,,,,,,,,,,,,,,,
1736666314013,-0.22305001,2.05095,9.094951,,,,,,,,,,,,,,,,,,
1736666314023,-0.29295,2.0959501,9.094951,,,,,,,,,,,,,,,,,,
1736666314034,-0.35295,2.127,9.073951,,,,,,,,,,,,,,,,,,
1736666314044,-0.27600002,2.09805,9.0709505,,,,,,,,,,,,,,,,,,
1736666314054,-0.24495001,2.043,9.117001,,,,,,,,,,,,,,,,,,
1736666314065,-0.24705002,1.9980001,9.16695,,,,,,,,,,,,,,,,,,
1736666314075,-0.216,2.02395,9.118951,,,,,,,,,,,,,,,,,,
1736666314084,-0.23295002,2.08905,9.0400505,,,,,,,,,,,,,,,,,,
1736666314094,-0.31695002,2.18895,8.99205,,,,,,,,,,,,,,,,,,
1736666314104,-0.32205,2.2450502,9.02295,,,,,,,,,,,,,,,,,,
1736666314114,-0.324,2.259,9.054001,,,,,,,,,,,,,,,,,,
1736666314124,-0.324,2.21295,9.031051,,,,,,,,,,,,,,,,,,
1736666314134,-0.29505002,2.154,9.02595,,,,,,,,,,,,,,,,,,
1736666314144,-0.34305,2.151,8.99895,,,,,,,,,,,,,,,,,,
1736666314155,-0.34605002,2.1660001,9.05895,,,,,,,,,,,,,,,,,,
1736666314164,-0.31005,2.16105,9.2029505,,,,,,,,,,,,,,,,,,
1736666314174,-0.312,2.127,9.291,,,,,,,,,,,,,,,,,,
1736666314184,-0.26700002,2.0629501,9.291,,,,,,,,,,,,,,,,,,
1736666314194,-0.25905,2.0629501,9.250951,,,,,,,,,,,,,,,,,,
1736666314205,-0.264,2.0269501,9.214951,,,,,,,,,,,,,,,,,,
1736666314215,-0.28605002,2.1390002,9.174001,,,,,,,,,,,,,,,,,,
1736666314224,-0.32205,2.2350001,9.15705,,,,,,,,,,,,,,,,,,
1736666314234,-0.38205,2.24895,9.066,,,,,,,,,,,,,,,,,,
1736666314244,-0.441,2.26095,9.106951,,,,,,,,,,,,,,,,,,
1736666314254,-0.38895002,2.24895,9.25605,,,,,,,,,,,,,,,,,,
1736666314266,-0.30705002,2.18505,9.415951,,,,,,,,,,,,,,,,,,
1736666314275,-0.26700002,2.11305,9.46905,,,,,,,,,,,,,,,,,,
1736666314286,-0.3,2.1030002,9.438001,,,,,,,,,,,,,,,,,,
1736666314296,-0.31395,2.1340501,9.385051,,,,,,,,,,,,,,,,,,
1736666314305,-0.32895002,2.1660001,9.28005,,,,,,,,,,,,,,,,,,
1736666314315,-0.34305,2.1730502,9.118951,,,,,,,,,,,,,,,,,,
1736666314326,-0.34095,2.18895,9.085951,,,,,,,,,,,,,,,,,,
1736666314336,-0.34605002,2.19405,9.118951,,,,,,,,,,,,,,,,,,
1736666314345,-0.34995002,2.19195,9.1050005,,,,,,,,,,,,,,,,,,
1736666314355,-0.33795002,2.16105,9.114,,,,,,,,,,,,,,,,,,
1736666314365,-0.28800002,2.127,9.18105,,,,,,,,,,,,,,,,,,
1736666314375,-0.279,2.14905,9.19095,,,,,,,,,,,,,,,,,,
1736666314385,-0.33600003,2.1700501,9.262951,,,,,,,,,,,,,,,,,,
1736666314395,-0.34605002,2.1750002,9.415951,,,,,,,,,,,,,,,,,,
1736666314405,-0.40305,2.17995,9.387,,,,,,,,,,,,,,,,,,
1736666314415,-0.372,2.2060502,9.33705,,,,,,,,,,,,,,,,,,
1736666314425,-0.34800002,2.22105,9.250951,,,,,,,,,,,,,,,,,,
1736666314435,-0.33600003,2.18895,9.241051,,,,,,,,,,,,,,,,,,
1736666314445,-0.28800002,2.19405,9.342,,,,,,,,,,,,,,,,,,
1736666314455,-0.31905,2.18895,9.31995,,,,,,,,,,,,,,,,,,
1736666314465,-0.36,2.1700501,9.315001,,,,,,,,,,,,,,,,,,
1736666314475,-0.35805002,2.18205,9.378,,,,,,,,,,,,,,,,,,
1736666314485,-0.34605002,2.22495,9.40905,,,,,,,,,,,,,,,,,,
1736666314496,-0.39105,2.2470002,9.391951,,,,,,,,,,,,,,,,,,
1736666314507,-0.37695003,2.26605,9.36795,,,,,,,,,,,,,,,,,,
1736666314517,-0.40095,2.256,9.30795,,,,,,,,,,,,,,,,,,
1736666314527,-0.36495003,2.25195,9.282001,,,,,,,,,,,,,,,,,,
1736666314537,-0.32595003,2.22105,9.318001,,,,,,,,,,,,,,,,,,
1736666314546,-0.35295,2.19405,9.327001,,,,,,,,,,,,,,,,,,
1736666314556,-0.30495003,2.21595,9.373051,,,,,,,,,,,,,,,,,,
1736666314566,-0.32895002,2.23305,9.315001,,,,,,,,,,,,,,,,,,
1736666314576,-0.34995002,2.256,9.32295,,,,,,,,,,,,,,,,,,
1736666314586,-0.324,2.22105,9.282001,,,,,,,,,,,,,,,,,,
1736666314596,-0.32205,2.18205,9.258,,,,,,,,,,,,,,,,,,
1736666314606,-0.27405003,2.1319501,9.291,,,,,,,,,,,,,,,,,,
1736666314616,-0.28800002,2.115,9.291,,,,,,,,,,,,,,,,,,
1736666314626,-0.31905,2.151,9.271951,,,,,,,,,,,,,,,,,,
1736666314636,-0.29805002,2.23005,9.303,,,,,,,,,,,,,,,,,,
1736666314646,-0.303,2.2729502,9.33195,,,,,,,,,,,,,,,,,,
1736666314656,-0.291,2.3070002,9.35595,,,,,,,,,,,,,,,,,,
1736666314666,-0.34800002,2.2710001,9.34395,,,,,,,,,,,,,,,,,,
1736666314676,-0.33105,2.23305,9.373051,,,,,,,,,,,,,,,,,,
1736666314687,-0.32895002,2.18895,9.493051,,,,,,,,,,,,,,,,,,
1736666314697,-0.34305,2.1700501,9.579,,,,,,,,,,,,,,,,,,
1736666314706,-0.34095,2.19195,9.568951,,,,,,,,,,,,,,,,,,
1736666314716,-0.33795002,2.2420502,9.526051,,,,,,,,,,,,,,,,,,
1736666311729,,,,-26.75625,-10.25625,-12.4125,,,,,,,,,,,,,,,
1736666311749,,,,-26.7,-10.200001,-12.243751,,,,,,,,,,,,,,,
1736666311769,,,,-26.94375,-10.25625,-12.056251,,,,,,,,,,,,,,,
1736666311789,,,,-26.94375,-10.387501,-11.8125,,,,,,,,,,,,,,,
1736666311809,,,,-26.75625,-10.6875,-12.1125,,,,,,,,,,,,,,,
1736666311830,,,,-27.112501,-10.6875,-12.3,,,,,,,,,,,,,,,
1736666311850,,,,-27.243752,-10.556251,-12.356251,,,,,,,,,,,,,,,
1736666311869,,,,-27.112501,-10.44375,-12.543751,,,,,,,,,,,,,,,
1736666311890,,,,-27.300001,-10.25625,-12.4125,,,,,,,,,,,,,,,
1736666311909,,,,-27.056252,-10.200001,-12.1125,,,,,,,,,,,,,,,
1736666311929,,,,-27.000002,-10.44375,-12.1125,,,,,,,,,,,,,,,
1736666311950,,,,-27.112501,-10.743751,-12.356251,,,,,,,,,,,,,,,
1736666311969,,,,-27.112501,-10.856251,-12.356251,,,,,,,,,,,,,,,
1736666311989,,,,-27.112501,-11.15625,-12.6,,,,,,,,,,,,,,,
1736666312009,,,,-27.35625,-11.15625,-12.543751,,,,,,,,,,,,,,,
1736666312030,,,,-27.243752,-11.400001,-12.4125,,,,,,,,,,,,,,,
1736666312049,,,,-27.112501,-11.45625,-12.356251,,,,,,,,,,,,,,,
1736666312069,,,,-26.94375,-11.34375,-12.543751,,,,,,,,,,,,,,,
1736666312089,,,,-26.75625,-11.1,-12.543751,,,,,,,,,,,,,,,
1736666312110,,,,-27.000002,-10.6875,-12.543751,,,,,,,,,,,,,,,
1736666312129,,,,-27.112501,-10.5,-12.6,,,,,,,,,,,,,,,
1736666312150,,,,-27.4125,-10.556251,-12.356251,,,,,,,,,,,,,,,
1736666312170,,,,-27.54375,-10.8,-12.356251,,,,,,,,,,,,,,,
1736666312189,,,,-27.656252,-11.15625,-12.3,,,,,,,,,,,,,,,
1736666312210,,,,-27.6,-11.400001,-12.3,,,,,,,,,,,,,,,
1736666312230,,,,-27.112501,-11.64375,-12.356251,,,,,,,,,,,,,,,
1736666312250,,,,-26.94375,-11.700001,-12.356251,,,,,,,,,,,,,,,
1736666312269,,,,-26.343752,-11.45625,-12.3,,,,,,,,,,,,,,,
1736666312290,,,,-26.212502,-11.587501,-12.3,,,,,,,,,,,,,,,
1736666312309,,,,-26.5125,-11.45625,-12.243751,,,,,,,,,,,,,,,
1736666312330,,,,-26.75625,-11.64375,-12.543751,,,,,,,,,,,,,,,
1736666312349,,,,-27.056252,-11.700001,-12.3,,,,,,,,,,,,,,,
1736666312370,,,,-27.112501,-11.75625,-12.543751,,,,,,,,,,,,,,,
1736666312389,,,,-27.000002,-11.75625,-12.543751,,,,,,,,,,,,,,,
1736666312410,,,,-27.243752,-11.94375,-12.3,,,,,,,,,,,,,,,
1736666312430,,,,-27.243752,-12.356251,-12.356251,,,,,,,,,,,,,,,
1736666312449,,,,-27.243752,-12.843751,-12.1125,,,,,,,,,,,,,,,
1736666312470,,,,-27.656252,-12.900001,-12.243751,,,,,,,,,,,,,,,
1736666312489,,,,-27.243752,-12.7875,-12.1125,,,,,,,,,,,,,,,
1736666312510,,,,-27.000002,-12.6,-12.3,,,,,,,,,,,,,,,
1736666312530,,,,-27.54375,-12.243751,-12.243751,,,,,,,,,,,,,,,
1736666312550,,,,-27.243752,-12.6,-12.543751,,,,,,,,,,,,,,,
1736666312569,,,,-27.656252,-12.7875,-12.543751,,,,,,,,,,,,,,,
1736666312590,,,,-28.143751,-12.656251,-12.543751,,,,,,,,,,,,,,,
1736666312610,,,,-27.843752,-13.14375,-12.543751,,,,,,,,,,,,,,,
1736666312629,,,,-28.143751,-13.087501,-12.243751,,,,,,,,,,,,,,,
1736666312650,,,,-28.0125,-13.25625,-12.243751,,,,,,,,,,,,,,,
1736666312669,,,,-27.712502,-13.387501,-12.1125,,,,,,,,,,,,,,,
1736666312689,,,,-27.656252,-13.200001,-12.6,,,,,,,,,,,,,,,
1736666312710,,,,-27.243752,-13.14375,-12.1125,,,,,,,,,,,,,,,
1736666312729,,,,-27.112501,-13.25625,-12.3,,,,,,,,,,,,,,,
1736666312750,,,,-27.300001,-13.687501,-12.356251,,,,,,,,,,,,,,,
1736666312769,,,,-27.300001,-13.856251,-12.243751,,,,,,,,,,,,,,,
1736666312790,,,,-27.6,-14.156251,-12.543751,,,,,,,,,,,,,,,
1736666312810,,,,-27.54375,-14.64375,-12.3,,,,,,,,,,,,,,,
1736666312830,,,,-27.54375,-14.700001,-12.543751,,,,,,,,,,,,,,,
1736666312849,,,,-27.54375,-14.75625,-12.4125,,,,,,,,,,,,,,,
1736666312870,,,,-27.4125,-15.056251,-12.4125,,,,,,,,,,,,,,,
1736666312889,,,,-27.54375,-14.94375,-12.6,,,,,,,,,,,,,,,
1736666312909,,,,-27.712502,-15.243751,-12.4125,,,,,,,,,,,,,,,
1736666312929,,,,-27.843752,-15.3,-12.243751,,,,,,,,,,,,,,,
1736666312950,,,,-28.2,-15.543751,-12.356251,,,,,,,,,,,,,,,
1736666312969,,,,-28.143751,-15.843751,-12.543751,,,,,,,,,,,,,,,
1736666312989,,,,-27.900002,-15.656251,-12.656251,,,,,,,,,,,,,,,
1736666313010,,,,-27.900002,-16.087502,-12.656251,,,,,,,,,,,,,,,
1736666313030,,,,-27.6,-16.143751,-12.95625,,,,,,,,,,,,,,,
1736666313049,,,,-27.712502,-16.2,-13.312501,,,,,,,,,,,,,,,
1736666313070,,,,-27.712502,-16.987501,-13.44375,,,,,,,,,,,,,,,
1736666313089,,,,-27.956251,-17.15625,-14.043751,,,,,,,,,,,,,,,
1736666313109,,,,-28.143751,-17.400002,-13.856251,,,,,,,,,,,,,,,
1736666313129,,,,-28.2,-17.643751,-13.500001,,,,,,,,,,,,,,,
1736666313150,,,,-28.25625,-17.7,-13.44375,,,,,,,,,,,,,,,
1736666313170,,,,-27.900002,-17.75625,-13.44375,,,,,,,,,,,,,,,
1736666313189,,,,-27.956251,-18.0,-13.500001,,,,,,,,,,,,,,,
1736666313209,,,,-27.956251,-18.1875,-13.556251,,,,,,,,,,,,,,,
1736666313230,,,,-28.0125,-18.1875,-13.856251,,,,,,,,,,,,,,,
1736666313249,,,,-28.143751,-18.487501,-14.043751,,,,,,,,,,,,,,,
1736666313269,,,,-28.2,-18.7875,-14.043751,,,,,,,,,,,,,,,
1736666313289,,,,-27.6,-19.087502,-14.400001,,,,,,,,,,,,,,,
1736666313310,,,,-27.243752,-19.5,-14.043751,,,,,,,,,,,,,,,
1736666313329,,,,-27.243752,-19.5,-13.44375,,,,,,,,,,,,,,,
1736666313350,,,,-27.000002,-19.5,-13.500001,,,,,,,,,,,,,,,
1736666313369,,,,-27.4125,-19.85625,-13.312501,,,,,,,,,,,,,,,
1736666313389,,,,-27.6,-19.85625,-13.743751,,,,,,,,,,,,,,,
1736666313410,,,,-27.6,-20.15625,-14.343751,,,,,,,,,,,,,,,
1736666313429,,,,-27.712502,-20.400002,-14.512501,,,,,,,,,,,,,,,
1736666313449,,,,-27.6,-20.7,-14.400001,,,,,,,,,,,,,,,
1736666313469,,,,-27.54375,-21.0,-14.343751,,,,,,,,,,,,,,,
1736666313489,,,,-27.6,-21.487501,-14.043751,,,,,,,,,,,,,,,
1736666313509,,,,-27.656252,-21.7875,-13.8,,,,,,,,,,,,,,,
1736666313529,,,,-27.712502,-21.6,-13.743751,,,,,,,,,,,,,,,
1736666313549,,,,-28.143751,-21.956251,-13.500001,,,,,,,,,,,,,,,
1736666313570,,,,-28.312502,-22.25625,-13.500001,,,,,,,,,,,,,,,
1736666313590,,,,-28.2,-22.987501,-13.44375,,,,,,,,,,,,,,,
1736666313609,,,,-28.312502,-23.34375,-13.556251,,,,,,,,,,,,,,,
1736666313629,,,,-28.25625,-23.643751,-13.8,,,,,,,,,,,,,,,
1736666313649,,,,-28.2,-23.75625,-13.856251,,,,,,,,,,,,,,,
1736666313669,,,,-28.143751,-23.75625,-14.343751,,,,,,,,,,,,,,,
1736666313689,,,,-28.2,-24.35625,-14.64375,,,,,,,,,,,,,,,
1736666313709,,,,-28.0125,-24.6,-14.64375,,,,,,,,,,,,,,,
1736666313729,,,,-27.843752,-24.900002,-14.75625,,,,,,,,,,,,,,,
1736666313750,,,,-28.143751,-25.143751,-14.700001,,,,,,,,,,,,,,,
1736666313769,,,,-27.843752,-25.143751,-14.64375,,,,,,,,,,,,,,,
1736666313790,,,,-27.956251,-24.900002,-14.812501,,,,,,,,,,,,,,,
1736666313809,,,,-27.900002,-24.956251,-15.056251,,,,,,,,,,,,,,,
1736666313830,,,,-27.4125,-24.956251,-15.056251,,,,,,,,,,,,,,,
1736666313849,,,,-27.35625,-25.25625,-15.000001,,,,,,,,,,,,,,,
1736666313869,,,,-27.4125,-26.04375,-14.812501,,,,,,,,,,,,,,,
1736666313889,,,,-27.35625,-26.156252,-15.056251,,,,,,,,,,,,,,,
1736666313910,,,,-27.54375,-26.456251,-15.356251,,,,,,,,,,,,,,,
1736666313929,,,,-27.656252,-26.7,-15.95625,,,,,,,,,,,,,,,
1736666313949,,,,-27.243752,-26.7,-16.44375,,,,,,,,,,,,,,,
1736666313970,,,,-27.056252,-27.056252,-16.5,,,,,,,,,,,,,,,
1736666313989,,,,-27.300001,-27.7875,-16.5,,,,,,,,,,,,,,,
1736666314010,,,,-27.000002,-27.843752,-16.0125,,,,,,,,,,,,,,,
1736666314029,,,,-27.112501,-28.143751,-16.0125,,,,,,,,,,,,,,,
1736666314049,,,,-27.54375,-28.3875,-15.95625,,,,,,,,,,,,,,,
1736666314069,,,,-27.000002,-28.143751,-16.2,,,,,,,,,,,,,,,
1736666314089,,,,-27.112501,-28.687502,-16.800001,,,,,,,,,,,,,,,
1736666314110,,,,-27.056252,-28.85625,-17.1,,,,,,,,,,,,,,,
1736666314129,,,,-26.75625,-29.156252,-17.400002,,,,,,,,,,,,,,,
1736666314149,,,,-26.7,-29.1,-17.456251,,,,,,,,,,,,,,,
1736666314169,,,,-26.94375,-29.04375,-17.5125,,,,,,,,,,,,,,,
1736666314190,,,,-26.7,-29.1,-17.400002,,,,,,,,,,,,,,,
1736666314209,,,,-26.5125,-28.800001,-17.5125,,,,,,,,,,,,,,,
1736666314229,,,,-26.5125,-29.1,-17.643751,,,,,,,,,,,,,,,
1736666314249,,,,-26.156252,-28.85625,-17.643751,,,,,,,,,,,,,,,
1736666314270,,,,-25.9125,-28.743752,-17.75625,,,,,,,,,,,,,,,
1736666314289,,,,-26.212502,-29.1,-17.75625,,,,,,,,,,,,,,,
1736666314309,,,,-25.9125,-29.2875,-17.8125,,,,,,,,,,,,,,,
1736666314329,,,,-25.800001,-29.7,-17.94375,,,,,,,,,,,,,,,
1736666314350,,,,-26.04375,-30.187502,-18.4125,,,,,,,,,,,,,,,
1736666314369,,,,-25.500002,-30.35625,-18.300001,,,,,,,,,,,,,,,
1736666314390,,,,-25.612501,-30.487501,-18.54375,,,,,,,,,,,,,,,
1736666314409,,,,-25.556252,-30.35625,-18.4125,,,,,,,,,,,,,,,
1736666314429,,,,-25.25625,-30.35625,-18.300001,,,,,,,,,,,,,,,
1736666314450,,,,-25.2,-30.35625,-18.54375,,,,,,,,,,,,,,,
1736666314470,,,,-24.956251,-30.487501,-18.6,,,,,,,,,,,,,,,
1736666314490,,,,-25.143751,-30.54375,-18.712502,,,,,,,,,,,,,,,
1736666314509,,,,-25.143751,-30.6,-18.4125,,,,,,,,,,,,,,,
1736666314529,,,,-25.143751,-30.6,-18.6,,,,,,,,,,,,,,,
1736666314549,,,,-25.143751,-30.843752,-18.65625,,,,,,,,,,,,,,,
1736666314569,,,,-25.0125,-30.956251,-18.900002,,,,,,,,,,,,,,,
1736666314589,,,,-25.2,-31.2,-19.44375,,,,,,,,,,,,,,,
1736666314609,,,,-25.0125,-31.500002,-19.25625,,,,,,,,,,,,,,,
1736666314629,,,,-24.956251,-31.500002,-19.25625,,,,,,,,,,,,,,,
1736666314650,,,,-24.656252,-31.687502,-18.900002,,,,,,,,,,,,,,,
1736666314669,,,,-24.4125,-31.85625,-18.4125,,,,,,,,,,,,,,,
1736666314689,,,,-24.35625,-31.987501,-18.712502,,,,,,,,,,,,,,,
1736666314709,,,,-24.712502,-32.287502,-18.65625,,,,,,,,,,,,,,,
1736666311734,,,,,,,-0.188814,1.14983,9.737178,,,,,,,,,,,,
1736666311744,,,,,,,-0.190423,1.161352,9.735779,,,,,,,,,,,,
1736666311755,,,,,,,-0.193748,1.170245,9.734649,,,,,,,,,,,,
1736666311765,,,,,,,-0.197084,1.176536,9.733822,,,,,,,,,,,,
1736666311775,,,,,,,-0.199607,1.183904,9.73288,,,,,,,,,,,,
1736666311785,,,,,,,-0.198951,1.184893,9.732772,,,,,,,,,,,,
1736666311794,,,,,,,-0.198811,1.186356,9.732595,,,,,,,,,,,,
1736666311804,,,,,,,-0.194455,1.18124,9.733305,,,,,,,,,,,,
1736666311815,,,,,,,-0.192283,1.179054,9.733614,,,,,,,,,,,,
1736666311825,,,,,,,-0.18519,1.167937,9.735092,,,,,,,,,,,,
1736666311834,,,,,,,-0.179771,1.162954,9.735789,,,,,,,,,,,,
1736666311844,,,,,,,-0.177393,1.151833,9.737158,,,,,,,,,,,,
1736666311855,,,,,,,-0.175401,1.142433,9.7383,,,,,,,,,,,,
1736666311865,,,,,,,-0.169177,1.138372,9.738886,,,,,,,,,,,,
1736666311874,,,,,,,-0.164269,1.132782,9.73962,,,,,,,,,,,,
1736666311885,,,,,,,-0.165726,1.136577,9.739155,,,,,,,,,,,,
1736666311894,,,,,,,-0.164268,1.136437,9.739196,,,,,,,,,,,,
1736666311904,,,,,,,-0.169999,1.148114,9.737725,,,,,,,,,,,,
1736666311915,,,,,,,-0.173105,1.154116,9.736963,,,,,,,,,,,,
1736666311925,,,,,,,-0.174628,1.156765,9.736621,,,,,,,,,,,,
1736666311934,,,,,,,-0.175887,1.164174,9.735717,,,,,,,,,,,,
1736666311945,,,,,,,-0.17605,1.164202,9.735709,,,,,,,,,,,,
1736666311955,,,,,,,-0.179061,1.167425,9.735268,,,,,,,,,,,,
1736666311965,,,,,,,-0.198813,1.208632,9.729855,,,,,,,,,,,,
1736666311975,,,,,,,-0.217449,1.209833,9.729304,,,,,,,,,,,,
1736666311985,,,,,,,-0.246157,1.203606,9.729392,,,,,,,,,,,,
1736666311996,,,,,,,-0.273433,1.228155,9.725595,,,,,,,,,,,,
1736666312006,,,,,,,-0.268773,1.212236,9.727723,,,,,,,,,,,,
1736666312016,,,,,,,-0.27662,1.18357,9.731034,,,,,,,,,,,,
1736666312026,,,,,,,-0.27898,1.161832,9.733586,,,,,,,,,,,,
1736666312036,,,,,,,-0.260541,1.154448,9.734976,,,,,,,,,,,,
1736666312046,,,,,,,-0.255454,1.16566,9.733774,,,,,,,,,,,,
1736666312056,,,,,,,-0.259368,1.161932,9.734117,,,,,,,,,,,,
1736666312066,,,,,,,-0.246245,1.168505,9.733671,,,,,,,,,,,,
1736666312076,,,,,,,-0.234328,1.175603,9.73311,,,,,,,,,,,,
1736666312086,,,,,,,-0.23081,1.176894,9.733037,,,,,,,,,,,,
1736666312095,,,,,,,-0.228679,1.177483,9.733018,,,,,,,,,,,,
1736666312105,,,,,,,-0.221058,1.177984,9.733132,,,,,,,,,,,,
1736666312116,,,,,,,-0.219127,1.181426,9.732759,,,,,,,,,,,,
1736666312126,,,,,,,-0.216858,1.169673,9.73423,,,,,,,,,,,,
1736666312135,,,,,,,-0.214044,1.166643,9.734654,,,,,,,,,,,,
1736666312145,,,,,,,-0.205886,1.16243,9.735334,,,,,,,,,,,,
1736666312155,,,,,,,-0.206438,1.155355,9.736165,,,,,,,,,,,,
1736666312165,,,,,,,-0.197307,1.150189,9.736966,,,,,,,,,,,,
1736666312177,,,,,,,-0.182062,1.148146,9.737505,,,,,,,,,,,,
1736666312187,,,,,,,-0.166761,1.134985,9.739322,,,,,,,,,,,,
1736666312197,,,,,,,-0.155527,1.127536,9.740374,,,,,,,,,,,,
1736666312207,,,,,,,-0.140984,1.108751,9.742751,,,,,,,,,,,,
1736666312216,,,,,,,-0.124757,1.096921,9.74431,,,,,,,,,,,,
1736666312226,,,,,,,-0.11846,1.09236,9.744902,,,,,,,,,,,,
1736666312236,,,,,,,-0.111644,1.083346,9.745988,,,,,,,,,,,,
1736666312246,,,,,,,-0.121142,1.093556,9.744735,,,,,,,,,,,,
1736666312256,,,,,,,-0.121931,1.097364,9.744296,,,,,,,,,,,,
1736666312266,,,,,,,-0.122122,1.117086,9.742053,,,,,,,,,,,,
1736666312276,,,,,,,-0.128063,1.130473,9.740433,,,,,,,,,,,,
1736666312286,,,,,,,-0.142258,1.139613,9.739169,,,,,,,,,,,,
1736666312296,,,,,,,-0.145288,1.151181,9.737764,,,,,,,,,,,,
1736666312306,,,,,,,-0.145883,1.151207,9.737752,,,,,,,,,,,,
1736666312317,,,,,,,-0.156352,1.152406,9.737449,,,,,,,,,,,,
1736666312327,,,,,,,-0.153133,1.142255,9.738695,,,,,,,,,,,,
1736666312337,,,,,,,-0.145738,1.141771,9.738865,,,,,,,,,,,,
1736666312347,,,,,,,-0.144389,1.133596,9.739841,,,,,,,,,,,,
1736666312356,,,,,,,-0.144347,1.126774,9.740634,,,,,,,,,,,,
1736666312366,,,,,,,-0.147333,1.131428,9.740049,,,,,,,,,,,,
1736666312376,,,,,,,-0.147405,1.12859,9.740377,,,,,,,,,,,,
1736666312386,,,,,,,-0.150544,1.136996,9.73935,,,,,,,,,,,,
1736666312396,,,,,,,-0.15794,1.142389,9.738604,,,,,,,,,,,,
1736666312407,,,,,,,-0.162081,1.148036,9.737871,,,,,,,,,,,,
1736666312417,,,,,,,-0.162609,1.153683,9.737194,,,,,,,,,,,,
1736666312427,,,,,,,-0.173389,1.15524,9.736825,,,,,,,,,,,,
1736666312437,,,,,,,-0.184688,1.161444,9.735878,,,,,,,,,,,,
1736666312447,,,,,,,-0.18537,1.163357,9.735636,,,,,,,,,,,,
1736666312458,,,,,,,-0.189933,1.165931,9.73524,,,,,,,,,,,,
1736666312468,,,,,,,-0.179401,1.175153,9.734331,,,,,,,,,,,,
1736666312477,,,,,,,-0.169,1.180591,9.73386,,,,,,,,,,,,
1736666312487,,,,,,,-0.16454,1.206014,9.730818,,,,,,,,,,,,
1736666312497,,,,,,,-0.154602,1.217547,9.729546,,,,,,,,,,,,
1736666312507,,,,,,,-0.147206,1.243502,9.726377,,,,,,,,,,,,
1736666312517,,,,,,,-0.146499,1.266541,9.723413,,,,,,,,,,,,
1736666312527,,,,,,,-0.132088,1.26633,9.723647,,,,,,,,,,,,
1736666312538,,,,,,,-0.128511,1.276863,9.722318,,,,,,,,,,,,
1736666312548,,,,,,,-0.115274,1.273061,9.722983,,,,,,,,,,,,
1736666312558,,,,,,,-0.104205,1.274607,9.722904,,,,,,,,,,,,
1736666312568,,,,,,,-0.096287,1.285532,9.721549,,,,,,,,,,,,
1736666312577,,,,,,,-0.08983,1.287868,9.7213,,,,,,,,,,,,
1736666312587,,,,,,,-0.079443,1.296598,9.720232,,,,,,,,,,,,
1736666312597,,,,,,,-0.07656,1.3065,9.718929,,,,,,,,,,,,
1736666312608,,,,,,,-0.069426,1.303567,9.719377,,,,,,,,,,,,
1736666312618,,,,,,,-0.060465,1.305352,9.719197,,,,,,,,,,,,
1736666312628,,,,,,,-0.050903,1.305152,9.719279,,,,,,,,,,,,
1736666312638,,,,,,,-0.038623,1.302259,9.719722,,,,,,,,,,,,
1736666312648,,,,,,,-0.027211,1.31253,9.718379,,,,,,,,,,,,
1736666312658,,,,,,,-0.016913,1.315138,9.718051,,,,,,,,,,,,
1736666312668,,,,,,,-0.006194,1.329006,9.716176,,,,,,,,,,,,
1736666312679,,,,,,,-7.78E-4,1.338432,9.714886,,,,,,,,,,,,
1736666312689,,,,,,,0.003314,1.347161,9.713676,,,,,,,,,,,,
1736666312698,,,,,,,0.001022,1.358555,9.71209,,,,,,,,,,,,
1736666312708,,,,,,,-0.010426,1.366499,9.710971,,,,,,,,,,,,
1736666312719,,,,,,,-0.010242,1.376564,9.709548,,,,,,,,,,,,
1736666312729,,,,,,,-0.015111,1.383796,9.708513,,,,,,,,,,,,
1736666312739,,,,,,,-0.024244,1.394208,9.707005,,,,,,,,,,,,
1736666312749,,,,,,,-0.014186,1.401771,9.705935,,,,,,,,,,,,
1736666312758,,,,,,,-0.012024,1.407789,9.705067,,,,,,,,,,,,
1736666312769,,,,,,,-0.004446,1.419481,9.703371,,,,,,,,,,,,
1736666312778,,,,,,,0.003813,1.423389,9.702801,,,,,,,,,,,,
1736666312788,,,,,,,0.001011,1.4436,9.699815,,,,,,,,,,,,
1736666312799,,,,,,,0.007525,1.455294,9.698063,,,,,,,,,,,,
1736666312809,,,,,,,-0.002555,1.470727,9.695738,,,,,,,,,,,,
1736666312818,,,,,,,-0.01094,1.485903,9.693417,,,,,,,,,,,,
1736666312828,,,,,,,-0.017739,1.497281,9.691657,,,,,,,,,,,,
1736666312839,,,,,,,-0.035641,1.493018,9.692264,,,,,,,,,,,,
1736666312849,,,,,,,-0.056013,1.501876,9.6908,,,,,,,,,,,,
1736666312858,,,,,,,-0.061758,1.526186,9.686964,,,,,,,,,,,,
1736666312869,,,,,,,-0.063014,1.545533,9.683887,,,,,,,,,,,,
1736666312879,,,,,,,-0.07212,1.558096,9.681811,,,,,,,,,,,,
1736666312889,,,,,,,-0.078872,1.58261,9.677782,,,,,,,,,,,,
1736666312899,,,,,,,-0.076644,1.59956,9.675014,,,,,,,,,,,,
1736666312909,,,,,,,-0.077555,1.627735,9.670307,,,,,,,,,,,,
1736666312920,,,,,,,-0.07954,1.646454,9.667121,,,,,,,,,,,,
1736666312930,,,,,,,-0.087214,1.674756,9.662192,,,,,,,,,,,,
1736666312939,,,,,,,-0.085938,1.693097,9.659006,,,,,,,,,,,,
1736666312949,,,,,,,-0.090229,1.7035,9.657138,,,,,,,,,,,,
1736666312960,,,,,,,-0.097874,1.719763,9.654181,,,,,,,,,,,,
1736666312970,,,,,,,-0.094338,1.716933,9.654719,,,,,,,,,,,,
1736666312980,,,,,,,-0.098351,1.722933,9.653611,,,,,,,,,,,,
1736666312990,,,,,,,-0.099982,1.722263,9.653713,,,,,,,,,,,,
1736666312999,,,,,,,-0.103585,1.725726,9.653055,,,,,,,,,,,,
1736666313009,,,,,,,-0.106494,1.732149,9.651873,,,,,,,,,,,,
1736666313019,,,,,,,-0.108699,1.738496,9.650708,,,,,,,,,,,,
1736666313029,,,,,,,-0.109002,1.747184,9.649135,,,,,,,,,,,,
1736666313039,,,,,,,-0.107732,1.751511,9.648366,,,,,,,,,,,,
1736666313049,,,,,,,-0.106238,1.763029,9.646285,,,,,,,,,,,,
1736666313059,,,,,,,-0.10284,1.768334,9.64535,,,,,,,,,,,,
1736666313069,,,,,,,-0.100856,1.772924,9.64453,,,,,,,,,,,,
1736666313079,,,,,,,-0.096611,1.778677,9.643513,,,,,,,,,,,,
1736666313089,,,,,,,-0.095139,1.771817,9.644792,,,,,,,,,,,,
1736666313099,,,,,,,-0.093925,1.769951,9.645145,,,,,,,,,,,,
1736666313110,,,,,,,-0.09896,1.766067,9.645806,,,,,,,,,,,,
1736666313120,,,,,,,-0.100817,1.760573,9.646792,,,,,,,,,,,,
1736666313130,,,,,,,-0.106817,1.763002,9.646283,,,,,,,,,,,,
1736666313140,,,,,,,-0.1183,1.75417,9.647759,,,,,,,,,,,,
1736666313150,,,,,,,-0.135633,1.763419,9.645844,,,,,,,,,,,,
1736666313160,,,,,,,-0.135893,1.781647,9.64249,,,,,,,,,,,,
1736666313170,,,,,,,-0.147715,1.794573,9.63992,,,,,,,,,,,,
1736666313181,,,,,,,-0.164345,1.803138,9.638052,,,,,,,,,,,,
1736666313191,,,,,,,-0.169842,1.81937,9.634907,,,,,,,,,,,,
1736666313201,,,,,,,-0.175731,1.824153,9.633895,,,,,,,,,,,,
1736666313211,,,,,,,-0.184764,1.83937,9.630833,,,,,,,,,,,,
1736666313220,,,,,,,-0.188036,1.85406,9.627953,,,,,,,,,,,,
1736666313230,,,,,,,-0.20447,1.862551,9.625978,,,,,,,,,,,,
1736666313240,,,,,,,-0.221827,1.870523,9.624047,,,,,,,,,,,,
1736666313250,,,,,,,-0.223672,1.860823,9.625885,,,,,,,,,,,,
1736666313260,,,,,,,-0.22924,1.860801,9.62576,,,,,,,,,,,,
1736666313271,,,,,,,-0.219928,1.8589,9.626343,,,,,,,,,,,,
1736666313280,,,,,,,-0.212634,1.860168,9.626264,,,,,,,,,,,,
1736666313290,,,,,,,-0.214477,1.867637,9.624774,,,,,,,,,,,,
1736666313300,,,,,,,-0.215235,1.86723,9.624837,,,,,,,,,,,,
1736666313310,,,,,,,-0.22608,1.886503,9.620829,,,,,,,,,,,,
1736666313321,,,,,,,-0.231732,1.897923,9.61845,,,,,,,,,,,,
1736666313331,,,,,,,-0.231173,1.909697,9.616133,,,,,,,,,,,,
1736666313342,,,,,,,-0.229834,1.918235,9.614465,,,,,,,,,,,,
1736666313351,,,,,,,-0.22477,1.919657,9.614302,,,,,,,,,,,,
1736666313362,,,,,,,-0.219056,1.922867,9.613791,,,,,,,,,,,,
1736666313372,,,,,,,-0.216881,1.926275,9.613158,,,,,,,,,,,,
1736666313382,,,,,,,-0.218071,1.928084,9.612769,,,,,,,,,,,,
1736666313392,,,,,,,-0.228003,1.93101,9.61195,,,,,,,,,,,,
1736666313401,,,,,,,-0.227373,1.937155,9.610729,,,,,,,,,,,,
1736666313411,,,,,,,-0.232517,1.946043,9.608809,,,,,,,,,,,,
1736666313421,,,,,,,-0.243006,1.949583,9.607833,,,,,,,,,,,,
1736666313431,,,,,,,-0.244688,1.952495,9.607199,,,,,,,,,,,,
1736666313441,,,,,,,-0.247394,1.957462,9.606117,,,,,,,,,,,,
1736666313451,,,,,,,-0.249335,1.961366,9.605273,,,,,,,,,,,,
1736666313461,,,,,,,-0.249124,1.962225,9.605103,,,,,,,,,,,,
1736666313471,,,,,,,-0.248063,1.973937,9.60273,,,,,,,,,,,,
1736666313481,,,,,,,-0.248548,1.980273,9.601412,,,,,,,,,,,,
1736666313491,,,,,,,-0.253154,1.992895,9.598681,,,,,,,,,,,,
1736666313501,,,,,,,-0.256134,2.002216,9.596662,,,,,,,,,,,,
1736666313511,,,,,,,-0.262312,2.008612,9.595159,,,,,,,,,,,,
1736666313521,,,,,,,-0.270238,2.016384,9.593307,,,,,,,,,,,,
1736666313531,,,,,,,-0.27083,2.017926,9.592966,,,,,,,,,,,,
1736666313542,,,,,,,-0.27411,2.024613,9.591464,,,,,,,,,,,,
1736666313552,,,,,,,-0.267872,2.029871,9.590528,,,,,,,,,,,,
1736666313561,,,,,,,-0.265724,2.034042,9.589705,,,,,,,,,,,,
1736666313572,,,,,,,-0.272345,2.04657,9.586853,,,,,,,,,,,,
1736666313583,,,,,,,-0.266621,2.051342,9.585996,,,,,,,,,,,,
1736666313593,,,,,,,-0.271591,2.058792,9.584257,,,,,,,,,,,,
1736666313602,,,,,,,-0.275849,2.066404,9.582497,,,,,,,,,,,,
1736666313612,,,,,,,-0.279401,2.063132,9.5831,,,,,,,,,,,,
1736666313623,,,,,,,-0.28737,2.057934,9.583982,,,,,,,,,,,,
1736666313633,,,,,,,-0.288766,2.066286,9.582142,,,,,,,,,,,,
1736666313642,,,,,,,-0.282655,2.071852,9.581122,,,,,,,,,,,,
1736666313652,,,,,,,-0.281485,2.07823,9.579775,,,,,,,,,,,,
1736666313662,,,,,,,-0.278491,2.081591,9.579134,,,,,,,,,,,,
1736666313673,,,,,,,-0.272199,2.08151,9.579333,,,,,,,,,,,,
1736666313682,,,,,,,-0.274042,2.085663,9.578376,,,,,,,,,,,,
1736666313692,,,,,,,-0.273484,2.093391,9.576706,,,,,,,,,,,,
1736666313703,,,,,,,-0.270795,2.097374,9.57591,,,,,,,,,,,,
1736666313713,,,,,,,-0.269663,2.111498,9.57284,,,,,,,,,,,,
1736666313723,,,,,,,-0.2688,2.121834,9.570576,,,,,,,,,,,,
1736666313733,,,,,,,-0.269608,2.125419,9.569759,,,,,,,,,,,,
1736666313742,,,,,,,-0.274895,2.130702,9.568434,,,,,,,,,,,,
1736666313752,,,,,,,-0.282013,2.121679,9.570232,,,,,,,,,,,,
1736666313762,,,,,,,-0.289967,2.119538,9.570468,,,,,,,,,,,,
1736666313773,,,,,,,-0.287244,2.106687,9.573386,,,,,,,,,,,,
1736666313783,,,,,,,-0.285006,2.100389,9.574837,,,,,,,,,,,,
1736666313793,,,,,,,-0.275399,2.096463,9.575979,,,,,,,,,,,,
1736666313804,,,,,,,-0.2684,2.088589,9.577899,,,,,,,,,,,,
1736666313813,,,,,,,-0.274883,2.094439,9.576438,,,,,,,,,,,,
1736666313824,,,,,,,-0.278035,2.096607,9.575872,,,,,,,,,,,,
1736666313834,,,,,,,-0.293419,2.100903,9.574471,,,,,,,,,,,,
1736666313844,,,,,,,-0.303843,2.10655,9.572905,,,,,,,,,,,,
1736666313854,,,,,,,-0.302171,2.112029,9.571751,,,,,,,,,,,,
1736666313863,,,,,,,-0.305616,2.118476,9.570215,,,,,,,,,,,,
1736666313873,,,,,,,-0.308507,2.130346,9.567487,,,,,,,,,,,,
1736666313883,,,,,,,-0.307437,2.136864,9.56607,,,,,,,,,,,,
1736666313893,,,,,,,-0.308628,2.145438,9.564112,,,,,,,,,,,,
1736666313903,,,,,,,-0.310679,2.155343,9.561816,,,,,,,,,,,,
1736666313913,,,,,,,-0.308654,2.163067,9.560139,,,,,,,,,,,,
1736666313924,,,,,,,-0.315508,2.1653,9.55941,,,,,,,,,,,,
1736666313934,,,,,,,-0.311681,2.167597,9.559015,,,,,,,,,,,,
1736666313944,,,,,,,-0.304076,2.170767,9.558541,,,,,,,,,,,,
1736666313954,,,,,,,-0.301388,2.17342,9.558022,,,,,,,,,,,,
1736666313964,,,,,,,-0.299168,2.173974,9.557967,,,,,,,,,,,,
1736666313973,,,,,,,-0.299059,2.171349,9.558566,,,,,,,,,,,,
1736666313983,,,,,,,-0.299174,2.171597,9.558508,,,,,,,,,,,,
1736666313993,,,,,,,-0.293791,2.164521,9.560278,,,,,,,,,,,,
1736666314003,,,,,,,-0.29116,2.161671,9.561003,,,,,,,,,,,,
1736666314013,,,,,,,-0.288983,2.165994,9.560092,,,,,,,,,,,,
1736666314023,,,,,,,-0.285187,2.164867,9.56046,,,,,,,,,,,,
1736666314034,,,,,,,-0.292088,2.17356,9.55828,,,,,,,,,,,,
1736666314044,,,,,,,-0.291058,2.177049,9.557516,,,,,,,,,,,,
1736666314054,,,,,,,-0.286397,2.175137,9.558092,,,,,,,,,,,,
1736666314065,,,,,,,-0.286269,2.180063,9.556975,,,,,,,,,,,,
1736666314075,,,,,,,-0.281304,2.179454,9.557261,,,,,,,,,,,,
1736666314084,,,,,,,-0.280107,2.176735,9.557915,,,,,,,,,,,,
1736666314094,,,,,,,-0.286535,2.193598,9.553867,,,,,,,,,,,,
1736666314104,,,,,,,-0.285018,2.198062,9.552887,,,,,,,,,,,,
1736666314114,,,,,,,-0.290558,2.215211,9.548759,,,,,,,,,,,,
1736666314124,,,,,,,-0.294482,2.229835,9.545235,,,,,,,,,,,,
1736666314134,,,,,,,-0.295804,2.234699,9.544055,,,,,,,,,,,,
1736666314144,,,,,,,-0.299801,2.243525,9.54186,,,,,,,,,,,,
1736666314154,,,,,,,-0.306541,2.246314,9.54099,,,,,,,,,,,,
1736666314165,,,,,,,-0.314455,2.248678,9.540175,,,,,,,,,,,,
1736666314175,,,,,,,-0.318563,2.243885,9.541166,,,,,,,,,,,,
1736666314184,,,,,,,-0.32249,2.245661,9.540619,,,,,,,,,,,,
1736666314194,,,,,,,-0.32179,2.239145,9.542173,,,,,,,,,,,,
1736666314204,,,,,,,-0.321751,2.232499,9.543732,,,,,,,,,,,,
1736666314214,,,,,,,-0.322506,2.234357,9.543272,,,,,,,,,,,,
1736666314224,,,,,,,-0.320113,2.224949,9.54555,,,,,,,,,,,,
1736666314234,,,,,,,-0.326487,2.236103,9.542727,,,,,,,,,,,,
1736666314244,,,,,,,-0.325526,2.240711,9.541679,,,,,,,,,,,,
1736666314254,,,,,,,-0.33077,2.242497,9.541079,,,,,,,,,,,,
1736666314266,,,,,,,-0.341935,2.249097,9.539131,,,,,,,,,,,,
1736666314276,,,,,,,-0.337381,2.238577,9.541768,,,,,,,,,,,,
1736666314285,,,,,,,-0.338599,2.239262,9.541563,,,,,,,,,,,,
1736666314295,,,,,,,-0.341213,2.238857,9.541567,,,,,,,,,,,,
1736666314306,,,,,,,-0.340985,2.235852,9.542278,,,,,,,,,,,,
1736666314316,,,,,,,-0.342993,2.243853,9.540328,,,,,,,,,,,,
1736666314325,,,,,,,-0.341003,2.244634,9.540216,,,,,,,,,,,,
1736666314335,,,,,,,-0.339309,2.24808,9.539465,,,,,,,,,,,,
1736666314345,,,,,,,-0.336863,2.250306,9.539026,,,,,,,,,,,,
1736666314355,,,,,,,-0.335292,2.248944,9.539404,,,,,,,,,,,,
1736666314366,,,,,,,-0.337433,2.251673,9.538684,,,,,,,,,,,,
1736666314375,,,,,,,-0.335472,2.250298,9.539078,,,,,,,,,,,,
1736666314385,,,,,,,-0.337029,2.247808,9.539611,,,,,,,,,,,,
1736666314395,,,,,,,-0.342085,2.245167,9.540051,,,,,,,,,,,,
1736666314405,,,,,,,-0.344662,2.246017,9.53976,,,,,,,,,,,,
1736666314415,,,,,,,-0.347848,2.24851,9.539056,,,,,,,,,,,,
1736666314426,,,,,,,-0.351667,2.246595,9.539368,,,,,,,,,,,,
1736666314436,,,,,,,-0.348794,2.247083,9.539359,,,,,,,,,,,,
1736666314446,,,,,,,-0.347241,2.248801,9.53901,,,,,,,,,,,,
1736666314456,,,,,,,-0.343317,2.246638,9.539661,,,,,,,,,,,,
1736666314465,,,,,,,-0.338148,2.245489,9.540115,,,,,,,,,,,,
1736666314475,,,,,,,-0.341544,2.243546,9.540454,,,,,,,,,,,,
1736666314485,,,,,,,-0.346283,2.242989,9.540412,,,,,,,,,,,,
1736666314496,,,,,,,-0.352756,2.248202,9.53895,,,,,,,,,,,,
1736666314506,,,,,,,-0.353867,2.25143,9.538146,,,,,,,,,,,,
1736666314516,,,,,,,-0.358992,2.258901,9.536187,,,,,,,,,,,,
1736666314526,,,,,,,-0.360369,2.264346,9.534844,,,,,,,,,,,,
1736666314536,,,,,,,-0.357003,2.265475,9.534703,,,,,,,,,,,,
1736666314546,,,,,,,-0.357109,2.269056,9.533847,,,,,,,,,,,,
1736666314556,,,,,,,-0.351529,2.267693,9.534379,,,,,,,,,,,,
1736666314566,,,,,,,-0.350842,2.265601,9.534902,,,,,,,,,,,,
1736666314576,,,,,,,-0.350762,2.269143,9.534063,,,,,,,,,,,,
1736666314586,,,,,,,-0.349338,2.270999,9.533673,,,,,,,,,,,,
1736666314596,,,,,,,-0.34828,2.269794,9.533998,,,,,,,,,,,,
1736666314606,,,,,,,-0.348273,2.270826,9.533753,,,,,,,,,,,,
1736666314616,,,,,,,-0.344562,2.262597,9.535844,,,,,,,,,,,,
1736666314627,,,,,,,-0.338813,2.256124,9.537585,,,,,,,,,,,,
1736666314637,,,,,,,-0.334718,2.257484,9.537406,,,,,,,,,,,,
1736666314646,,,,,,,-0.333151,2.252031,9.538751,,,,,,,,,,,,
1736666314656,,,,,,,-0.328938,2.257812,9.53753,,,,,,,,,,,,
1736666314667,,,,,,,-0.326013,2.260622,9.536964,,,,,,,,,,,,
1736666314677,,,,,,,-0.326419,2.258625,9.537424,,,,,,,,,,,,
1736666314686,,,,,,,-0.329048,2.260523,9.536884,,,,,,,,,,,,
1736666314696,,,,,,,-0.33127,2.250658,9.539142,,,,,,,,,,,,
1736666314706,,,,,,,-0.332606,2.246615,9.540046,,,,,,,,,,,,
1736666314716,,,,,,,-0.333904,2.248073,9.539657,,,,,,,,,,,,
1736666311734,,,,,,,,,,-0.001925,-0.0231,-0.0204875,,,,,,,,,
1736666311744,,,,,,,,,,0.0034375,-0.0125124995,-0.014025,,,,,,,,,
1736666311754,,,,,,,,,,0.0088,-6.875E-4,-0.0045375,,,,,,,,,
1736666311764,,,,,,,,,,0.014162499,0.0099,0.0039875,,,,,,,,,
1736666311775,,,,,,,,,,0.017324999,0.0067375,0.00825,,,,,,,,,
1736666311785,,,,,,,,,,0.014162499,2.75E-4,0.0050875,,,,,,,,,
1736666311795,,,,,,,,,,-8.25E-4,-6.875E-4,8.25E-4,,,,,,,,,
1736666311805,,,,,,,,,,-0.0103124995,-0.0028875,-2.75E-4,,,,,,,,,
1736666311814,,,,,,,,,,-0.0114124995,-0.00715,8.25E-4,,,,,,,,,
1736666311824,,,,,,,,,,-0.00715,-0.00715,-0.0012375,,,,,,,,,
1736666311834,,,,,,,,,,-8.25E-4,0.003575,-0.0066,,,,,,,,,
1736666311844,,,,,,,,,,0.0077,0.0067375,-0.012925,,,,,,,,,
1736666311855,,,,,,,,,,0.0182875,-0.0017875,-0.0182875,,,,,,,,,
1736666311865,,,,,,,,,,0.031075,-0.0114124995,-0.029975,,,,,,,,,
1736666311874,,,,,,,,,,0.033275,-0.0125124995,-0.0407,,,,,,,,,
1736666311884,,,,,,,,,,0.0290125,-0.0092124995,-0.0427625,,,,,,,,,
1736666311894,,,,,,,,,,0.032175,-0.016775,-0.0427625,,,,,,,,,
1736666311904,,,,,,,,,,0.0268125,-0.014575,-0.0385,,,,,,,,,
1736666311914,,,,,,,,,,0.014162499,-0.00825,-0.0279125,,,,,,,,,
1736666311924,,,,,,,,,,0.013062499,-0.0125124995,-0.0204875,,,,,,,,,
1736666311934,,,,,,,,,,0.0182875,-0.016775,-0.0193875,,,,,,,,,
1736666311945,,,,,,,,,,0.02585,-0.0177375,-0.0204875,,,,,,,,,
1736666311955,,,,,,,,,,0.0290125,-0.00605,-0.0279125,,,,,,,,,
1736666311965,,,,,,,,,,-0.017875,0.068475,-0.02255,,,,,,,,,
1736666311975,,,,,,,,,,-0.096525,0.1450625,0.0039875,,,,,,,,,
1736666311985,,,,,,,,,,-0.148775,0.181225,0.041249998,,,,,,,,,
1736666311996,,,,,,,,,,-0.1530375,0.115225,0.0710875,,,,,,,,,
1736666312006,,,,,,,,,,-0.1232,0.0748,0.0774125,,,,,,,,,
1736666312016,,,,,,,,,,-0.0114124995,0.0716375,0.04235,,,,,,,,,
1736666312026,,,,,,,,,,0.058849998,-0.00715,0.00935,,,,,,,,,
1736666312036,,,,,,,,,,0.0779625,-0.0741125,-0.0034375,,,,,,,,,
1736666312046,,,,,,,,,,0.081125,-0.122099996,-0.0045375,,,,,,,,,
1736666312056,,,,,,,,,,0.0427625,-0.1241625,-0.0045375,,,,,,,,,
1736666312066,,,,,,,,,,-0.0028875,-0.086899996,-0.0097624995,,,,,,,,,
1736666312076,,,,,,,,,,-0.0273625,-0.0848375,-0.0086624995,,,,,,,,,
1736666312086,,,,,,,,,,-0.0306625,-0.0911625,-0.0023375,,,,,,,,,
1736666312096,,,,,,,,,,-0.0231,-0.080575,0.001925,,,,,,,,,
1736666312106,,,,,,,,,,-0.017875,-0.0539,0.00825,,,,,,,,,
1736666312116,,,,,,,,,,-0.015675,-0.0114124995,0.0199375,,,,,,,,,
1736666312126,,,,,,,,,,-0.0103124995,0.0215875,0.0199375,,,,,,,,,
1736666312135,,,,,,,,,,0.0045375,0.016224999,0.0199375,,,,,,,,,
1736666312145,,,,,,,,,,0.02365,-8.25E-4,0.0264,,,,,,,,,
1736666312155,,,,,,,,,,0.02695,-0.0017875,0.0275,,,,,,,,,
1736666312165,,,,,,,,,,0.017324999,-0.0039875,0.0242,,,,,,,,,
1736666312176,,,,,,,,,,-0.0017875,-0.014575,0.0242,,,,,,,,,
1736666312186,,,,,,,,,,-0.013475,-0.0262625,0.0221375,,,,,,,,,
1736666312197,,,,,,,,,,-0.0125124995,-0.0455125,0.0114124995,,,,,,,,,
1736666312207,,,,,,,,,,2.75E-4,-0.0529375,8.25E-4,,,,,,,,,
1736666312216,,,,,,,,,,0.013062499,-0.0539,-0.0119624995,,,,,,,,,
1736666312226,,,,,,,,,,0.02365,-0.0444125,-0.02365,,,,,,,,,
1736666312236,,,,,,,,,,0.034375,-0.031625,-0.029975,,,,,,,,,
1736666312246,,,,,,,,,,0.0471625,-0.0284625,-0.032175,,,,,,,,,
1736666312256,,,,,,,,,,0.0545875,-0.0358875,-0.02475,,,,,,,,,
1736666312266,,,,,,,,,,0.056649998,-0.031625,-0.013062499,,,,,,,,,
1736666312276,,,,,,,,,,0.050325,-0.0114124995,8.25E-4,,,,,,,,,
1736666312286,,,,,,,,,,0.0375375,-0.00715,0.013612499,,,,,,,,,
1736666312296,,,,,,,,,,0.0226875,-0.0253,0.0210375,,,,,,,,,
1736666312306,,,,,,,,,,0.0077,-0.046475,0.0232375,,,,,,,,,
1736666312316,,,,,,,,,,-8.25E-4,-0.0444125,0.018975,,,,,,,,,
1736666312326,,,,,,,,,,0.0045375,-0.0358875,0.0125124995,,,,,,,,,
1736666312336,,,,,,,,,,0.0193875,-0.0336875,0.0114124995,,,,,,,,,
1736666312347,,,,,,,,,,0.035475,-0.029424999,0.013612499,,,,,,,,,
1736666312356,,,,,,,,,,0.0460625,-0.0231,0.0114124995,,,,,,,,,
1736666312366,,,,,,,,,,0.0471625,-0.0125124995,0.00825,,,,,,,,,
1736666312376,,,,,,,,,,0.0438625,-0.016775,0.013612499,,,,,,,,,
1736666312386,,,,,,,,,,0.0386375,-0.0242,0.0199375,,,,,,,,,
1736666312396,,,,,,,,,,0.032175,-0.0188375,0.0264,,,,,,,,,
1736666312407,,,,,,,,,,0.0301125,-0.0103124995,0.0306625,,,,,,,,,
1736666312417,,,,,,,,,,0.0290125,-0.00605,0.04015,,,,,,,,,
1736666312427,,,,,,,,,,0.033275,-0.0028875,0.0529375,,,,,,,,,
1736666312438,,,,,,,,,,0.0396,-0.0039875,0.064625,,,,,,,,,
1736666312448,,,,,,,,,,0.0523875,-0.014575,0.065725,,,,,,,,,
1736666312458,,,,,,,,,,0.065175,-0.0336875,0.0562375,,,,,,,,,
1736666312468,,,,,,,,,,0.0748,-0.0539,0.04235,,,,,,,,,
1736666312478,,,,,,,,,,0.081125,-0.064625,0.0295625,,,,,,,,,
1736666312488,,,,,,,,,,0.081125,-0.07425,0.0253,,,,,,,,,
1736666312497,,,,,,,,,,0.067375,-0.080575,0.0369875,,,,,,,,,
1736666312507,,,,,,,,,,0.0460625,-0.079475,0.0572,,,,,,,,,
1736666312517,,,,,,,,,,0.0301125,-0.07315,0.0721875,,,,,,,,,
1736666312527,,,,,,,,,,0.0290125,-0.048675,0.0796125,,,,,,,,,
1736666312538,,,,,,,,,,0.0429,-0.0253,0.0796125,,,,,,,,,
1736666312548,,,,,,,,,,0.066275,-0.016775,0.07535,,,,,,,,,
1736666312558,,,,,,,,,,0.09075,-0.0114124995,0.0688875,,,,,,,,,
1736666312568,,,,,,,,,,0.104637496,-0.00715,0.067925,,,,,,,,,
1736666312577,,,,,,,,,,0.098175,-0.0028875,0.0699875,,,,,,,,,
1736666312587,,,,,,,,,,0.0790625,0.011,0.0774125,,,,,,,,,
1736666312597,,,,,,,,,,0.067375,0.02695,0.081675,,,,,,,,,
1736666312607,,,,,,,,,,0.065175,0.0290125,0.087037496,,,,,,,,,
1736666312618,,,,,,,,,,0.0727375,0.0193875,0.082775,,,,,,,,,
1736666312628,,,,,,,,,,0.0738375,-8.25E-4,0.0710875,,,,,,,,,
1736666312638,,,,,,,,,,0.0727375,-0.016775,0.0592625,,,,,,,,,
1736666312648,,,,,,,,,,0.067375,-0.0253,0.0529375,,,,,,,,,
1736666312659,,,,,,,,,,0.0556875,-0.022,0.0518375,,,,,,,,,
1736666312669,,,,,,,,,,0.0482625,-0.0028875,0.0529375,,,,,,,,,
1736666312679,,,,,,,,,,0.0460625,0.013062499,0.0540375,,,,,,,,,
1736666312689,,,,,,,,,,0.0482625,0.0353375,0.0625625,,,,,,,,,
1736666312698,,,,,,,,,,0.0653125,0.0609125,0.0699875,,,,,,,,,
1736666312708,,,,,,,,,,0.086625,0.0779625,0.0763125,,,,,,,,,
1736666312719,,,,,,,,,,0.100375,0.0779625,0.0848375,,,,,,,,,
1736666312729,,,,,,,,,,0.1111,0.064075,0.0902,,,,,,,,,
1736666312738,,,,,,,,,,0.117425,0.0523875,0.0848375,,,,,,,,,
1736666312748,,,,,,,,,,0.118525,0.0375375,0.07205,,,,,,,,,
1736666312758,,,,,,,,,,0.1227875,0.018424999,0.050875,,,,,,,,,
1736666312768,,,,,,,,,,0.1205875,0.0108624995,0.033825,,,,,,,,,
1736666312778,,,,,,,,,,0.106837496,0.0056375,0.0199375,,,,,,,,,
1736666312788,,,,,,,,,,0.0897875,0.0034375,0.013612499,,,,,,,,,
1736666312799,,,,,,,,,,0.0716375,0.015125,0.0188375,,,,,,,,,
1736666312809,,,,,,,,,,0.0567875,0.02695,0.033825,,,,,,,,,
1736666312819,,,,,,,,,,0.0418,0.0407,0.050875,,,,,,,,,
1736666312829,,,,,,,,,,0.0323125,0.066275,0.063525,,,,,,,,,
1736666312839,,,,,,,,,,0.0748,0.09075,0.0614625,,,,,,,,,
1736666312849,,,,,,,,,,0.1194875,0.0631125,0.0572,,,,,,,,,
1736666312859,,,,,,,,,,0.1387375,0.0407,0.0583,,,,,,,,,
1736666312870,,,,,,,,,,0.150425,0.0386375,0.0518375,,,,,,,,,
1736666312880,,,,,,,,,,0.1546875,0.0364375,0.039049998,,,,,,,,,
1736666312890,,,,,,,,,,0.1461625,0.033275,0.031625,,,,,,,,,
1736666312900,,,,,,,,,,0.134475,0.02365,0.032725,,,,,,,,,
1736666312910,,,,,,,,,,0.11,0.0119624995,0.032725,,,,,,,,,
1736666312919,,,,,,,,,,0.0823625,0.0088,0.033825,,,,,,,,,
1736666312929,,,,,,,,,,0.0545875,2.75E-4,0.0380875,,,,,,,,,
1736666312939,,,,,,,,,,0.0237875,-0.0114124995,0.0518375,,,,,,,,,
1736666312949,,,,,,,,,,0.001375,-0.014575,0.0677875,,,,,,,,,
1736666312959,,,,,,,,,,4.125E-4,-0.0039875,0.0763125,,,,,,,,,
1736666312969,,,,,,,,,,0.019524999,0.0119624995,0.081675,,,,,,,,,
1736666312980,,,,,,,,,,0.0556875,0.0301125,0.080575,,,,,,,,,
1736666312990,,,,,,,,,,0.0823625,0.048125,0.0837375,,,,,,,,,
1736666312999,,,,,,,,,,0.100375,0.066275,0.0848375,,,,,,,,,
1736666313009,,,,,,,,,,0.115225,0.0759,0.0859375,,,,,,,,,
1736666313019,,,,,,,,,,0.1291125,0.073699996,0.088,,,,,,,,,
1736666313029,,,,,,,,,,0.12595,0.065175,0.081675,,,,,,,,,
1736666313039,,,,,,,,,,0.108899996,0.0523875,0.07205,,,,,,,,,
1736666313049,,,,,,,,,,0.09075,0.0364375,0.0688875,,,,,,,,,
1736666313059,,,,,,,,,,0.0705375,0.0226875,0.0699875,,,,,,,,,
1736666313069,,,,,,,,,,0.050325,0.014162499,0.07425,,,,,,,,,
1736666313079,,,,,,,,,,0.02805,0.013062499,0.0796125,,,,,,,,,
1736666313089,,,,,,,,,,0.0163625,0.02695,0.0796125,,,,,,,,,
1736666313100,,,,,,,,,,0.017324999,0.050325,0.0774125,,,,,,,,,
1736666313111,,,,,,,,,,0.0312125,0.0609125,0.07535,,,,,,,,,
1736666313121,,,,,,,,,,0.0462,0.0609125,0.0752125,,,,,,,,,
1736666313130,,,,,,,,,,0.0430375,0.0716375,0.080575,,,,,,,,,
1736666313141,,,,,,,,,,0.0642125,0.128975,0.0774125,,,,,,,,,
1736666313151,,,,,,,,,,0.0972125,0.1354375,0.0666875,,,,,,,,,
1736666313160,,,,,,,,,,0.103675,0.1056,0.0688875,,,,,,,,,
1736666313170,,,,,,,,,,0.1057375,0.0842875,0.07095,,,,,,,,,
1736666313181,,,,,,,,,,0.106837496,0.066275,0.0666875,,,,,,,,,
1736666313191,,,,,,,,,,0.0961125,0.0598125,0.065725,,,,,,,,,
1736666313200,,,,,,,,,,0.0908875,0.0768625,0.0625625,,,,,,,,,
1736666313210,,,,,,,,,,0.086625,0.09075,0.0603625,,,,,,,,,
1736666313220,,,,,,,,,,0.069575,0.0961125,0.07095,,,,,,,,,
1736666313230,,,,,,,,,,0.052525,0.09185,0.091299996,,,,,,,,,
1736666313240,,,,,,,,,,0.0482625,0.0779625,0.10395,,,,,,,,,
1736666313250,,,,,,,,,,0.052525,0.05555,0.10505,,,,,,,,,
1736666313260,,,,,,,,,,0.05995,0.05775,0.096525,,,,,,,,,
1736666313270,,,,,,,,,,0.084425,0.0598125,0.0752125,,,,,,,,,
1736666313280,,,,,,,,,,0.1079375,0.0460625,0.0540375,,,,,,,,,
1736666313290,,,,,,,,,,0.1142625,0.0449625,0.0433125,,,,,,,,,
1736666313300,,,,,,,,,,0.108899996,0.0429,0.0422125,,,,,,,,,
1736666313310,,,,,,,,,,0.0961125,0.033275,0.0507375,,,,,,,,,
1736666313320,,,,,,,,,,0.078099996,0.02585,0.0592625,,,,,,,,,
1736666313330,,,,,,,,,,0.06215,0.013062499,0.0583,,,,,,,,,
1736666313342,,,,,,,,,,0.0451,0.0023375,0.0518375,,,,,,,,,
1736666313352,,,,,,,,,,0.0345125,-8.25E-4,0.041249998,,,,,,,,,
1736666313361,,,,,,,,,,0.02915,-0.00605,0.030524999,,,,,,,,,
1736666313372,,,,,,,,,,0.0259875,-0.0039875,0.0262625,,,,,,,,,
1736666313381,,,,,,,,,,0.0312125,0.0088,0.0284625,,,,,,,,,
1736666313391,,,,,,,,,,0.0493625,0.0215875,0.031625,,,,,,,,,
1736666313401,,,,,,,,,,0.069575,0.0301125,0.0433125,,,,,,,,,
1736666313411,,,,,,,,,,0.0792,0.032175,0.055,,,,,,,,,
1736666313421,,,,,,,,,,0.0759,0.033275,0.0561,,,,,,,,,
1736666313431,,,,,,,,,,0.0738375,0.0290125,0.048675,,,,,,,,,
1736666313441,,,,,,,,,,0.070675,0.0279125,0.0380875,,,,,,,,,
1736666313451,,,,,,,,,,0.068475,0.031075,0.0295625,,,,,,,,,
1736666313461,,,,,,,,,,0.0664125,0.02585,0.0188375,,,,,,,,,
1736666313471,,,,,,,,,,0.06325,0.0045375,0.014575,,,,,,,,,
1736666313481,,,,,,,,,,0.05995,-0.0125124995,0.0125124995,,,,,,,,,
1736666313491,,,,,,,,,,0.0482625,-0.016775,0.016775,,,,,,,,,
1736666313502,,,,,,,,,,0.036575,-0.00715,0.0242,,,,,,,,,
1736666313512,,,,,,,,,,0.0312125,0.0119624995,0.032725,,,,,,,,,
1736666313522,,,,,,,,,,0.035475,0.0290125,0.041249998,,,,,,,,,
1736666313531,,,,,,,,,,0.06325,0.0301125,0.0433125,,,,,,,,,
1736666313542,,,,,,,,,,0.0972125,0.0353375,0.0422125,,,,,,,,,
1736666313552,,,,,,,,,,0.1153625,0.0418,0.04015,,,,,,,,,
1736666313561,,,,,,,,,,0.120725,0.0364375,0.0273625,,,,,,,,,
1736666313572,,,,,,,,,,0.1164625,0.0290125,0.014575,,,,,,,,,
1736666313583,,,,,,,,,,0.0908875,0.032175,0.015675,,,,,,,,,
1736666313593,,,,,,,,,,0.06325,0.0386375,0.016775,,,,,,,,,
1736666313603,,,,,,,,,,0.0504625,0.032175,0.0188375,,,,,,,,,
1736666313613,,,,,,,,,,0.038775,0.02585,0.0262625,,,,,,,,,
1736666313623,,,,,,,,,,0.036025,0.0279125,0.0273625,,,,,,,,,
1736666313633,,,,,,,,,,0.0391875,0.0034375,0.0177375,,,,,,,,,
1736666313642,,,,,,,,,,0.0275,-0.0306625,0.0092124995,,,,,,,,,
1736666313652,,,,,,,,,,0.0158125,-0.049775,-2.75E-4,,,,,,,,,
1736666313662,,,,,,,,,,0.0094875,-0.0413875,-2.75E-4,,,,,,,,,
1736666313672,,,,,,,,,,0.01045,-0.020075,0.00715,,,,,,,,,
1736666313683,,,,,,,,,,0.0306625,-0.003025,0.00495,,,,,,,,,
1736666313693,,,,,,,,,,0.053075,1.375E-4,0.00385,,,,,,,,,
1736666313702,,,,,,,,,,0.0669625,-0.00935,0.0081124995,,,,,,,,,
1736666313712,,,,,,,,,,0.0658625,-0.0243375,0.014575,,,,,,,,,
1736666313723,,,,,,,,,,0.0477125,-0.0306625,0.0188375,,,,,,,,,
1736666313733,,,,,,,,,,0.021175,-0.013612499,0.022,,,,,,,,,
1736666313742,,,,,,,,,,-0.0012375,1.375E-4,0.0231,,,,,,,,,
1736666313752,,,,,,,,,,-0.012925,0.014025,0.0262625,,,,,,,,,
1736666313762,,,,,,,,,,-0.011825,0.02035,0.0262625,,,,,,,,,
1736666313772,,,,,,,,,,0.005225,0.011825,0.022,,,,,,,,,
1736666313782,,,,,,,,,,0.0297,-0.01265,0.012375,,,,,,,,,
1736666313792,,,,,,,,,,0.043449998,-0.0306625,-0.002475,,,,,,,,,
1736666313804,,,,,,,,,,0.0413875,-0.0253,-0.015262499,,,,,,,,,
1736666313814,,,,,,,,,,0.0275,-8.25E-4,-0.017324999,,,,,,,,,
1736666313823,,,,,,,,,,0.020075,0.031075,-0.0088,,,,,,,,,
1736666313833,,,,,,,,,,0.021175,0.047025,0.0017875,,,,,,,,,
1736666313843,,,,,,,,,,0.0317625,0.0385,0.0092124995,,,,,,,,,
1736666313853,,,,,,,,,,0.0466125,0.02255,0.0114124995,,,,,,,,,
1736666313863,,,,,,,,,,0.0605,1.375E-4,0.00385,,,,,,,,,
1736666313873,,,,,,,,,,0.0658625,-0.01045,-2.75E-4,,,,,,,,,
1736666313883,,,,,,,,,,0.0562375,-0.0083875,-2.75E-4,,,,,,,,,
1736666313893,,,,,,,,,,0.0477125,-8.25E-4,0.00385,,,,,,,,,
1736666313903,,,,,,,,,,0.0391875,0.0075625,0.0103124995,,,,,,,,,
1736666313913,,,,,,,,,,0.036025,0.012925,0.015675,,,,,,,,,
1736666313923,,,,,,,,,,0.043449998,0.0171875,0.0092124995,,,,,,,,,
1736666313933,,,,,,,,,,0.0466125,0.014025,0.00495,,,,,,,,,
1736666313944,,,,,,,,,,0.0391875,0.0075625,0.00605,,,,,,,,,
1736666313954,,,,,,,,,,0.0254375,-0.003025,0.00385,,,,,,,,,
1736666313964,,,,,,,,,,0.0083875,-0.00935,-2.75E-4,,,,,,,,,
1736666313974,,,,,,,,,,-0.0055,-0.0158125,-0.0045375,,,,,,,,,
1736666313983,,,,,,,,,,-0.0023375,-0.014712499,-0.001375,,,,,,,,,
1736666313993,,,,,,,,,,0.017875,-0.0050875,-0.002475,,,,,,,,,
1736666314003,,,,,,,,,,0.038225,0.011825,-0.002475,,,,,,,,,
1736666314013,,,,,,,,,,0.0499125,0.0257125,-0.0056375,,,,,,,,,
1736666314023,,,,,,,,,,0.0413875,0.02365,-0.0121,,,,,,,,,
1736666314034,,,,,,,,,,0.0264,-0.0072875,-0.0099,,,,,,,,,
1736666314044,,,,,,,,,,0.01155,-0.0264,-0.0056375,,,,,,,,,
1736666314054,,,,,,,,,,0.0094875,-0.0210375,-0.0099,,,,,,,,,
1736666314064,,,,,,,,,,0.021175,-0.00935,-0.0163625,,,,,,,,,
1736666314075,,,,,,,,,,0.043449998,-0.004125,-0.020624999,,,,,,,,,
1736666314085,,,,,,,,,,0.054175,0.0012375,-0.02695,,,,,,,,,
1736666314095,,,,,,,,,,0.0499125,0.0097624995,-0.0323125,,,,,,,,,
1736666314104,,,,,,,,,,0.034925,0.014025,-0.02475,,,,,,,,,
1736666314114,,,,,,,,,,0.0232375,0.0044,-0.015262499,,,,,,,,,
1736666314125,,,,,,,,,,0.0180125,-0.0050875,-0.0099,,,,,,,,,
1736666314135,,,,,,,,,,0.0105875,-0.004125,-0.0078375,,,,,,,,,
1736666314144,,,,,,,,,,0.004125,-0.001925,-0.0099,,,,,,,,,
1736666314154,,,,,,,,,,-0.0022,0.011825,-0.004675,,,,,,,,,
1736666314165,,,,,,,,,,-0.0044,0.0320375,0.0028875,,,,,,,,,
1736666314175,,,,,,,,,,0.004125,0.0385,0.00715,,,,,,,,,
1736666314184,,,,,,,,,,0.021175,0.0405625,0.0092124995,,,,,,,,,
1736666314194,,,,,,,,,,0.0317625,0.0416625,0.00385,,,,,,,,,
1736666314204,,,,,,,,,,0.0328625,0.0405625,-0.003575,,,,,,,,,
1736666314214,,,,,,,,,,0.0254375,0.0268125,-0.011,,,,,,,,,
1736666314225,,,,,,,,,,0.0169125,0.012925,-0.019524999,,,,,,,,,
1736666314235,,,,,,,,,,-0.0033,-0.01155,-0.02585,,,,,,,,,
1736666314244,,,,,,,,,,-0.029975,-0.0232375,-0.0237875,,,,,,,,,
1736666314254,,,,,,,,,,-0.0468875,-0.014712499,-0.011,,,,,,,,,
1736666314265,,,,,,,,,,-0.0374,1.375E-4,6.875E-4,,,,,,,,,
1736666314275,,,,,,,,,,-0.0086624995,0.0182875,0.00605,,,,,,,,,
1736666314285,,,,,,,,,,0.0275,0.0363,0.00385,,,,,,,,,
1736666314295,,,,,,,,,,0.054175,0.0438625,0.0017875,,,,,,,,,
1736666314306,,,,,,,,,,0.0638,0.029975,-0.001375,,,,,,,,,
1736666314316,,,,,,,,,,0.051975,0.0023375,-0.0099,,,,,,,,,
1736666314325,,,,,,,,,,0.0232375,-0.021175,-0.017324999,,,,,,,,,
1736666314335,,,,,,,,,,-0.0064625,-0.0413875,-0.0215875,,,,,,,,,
1736666314346,,,,,,,,,,-0.01925,-0.0466125,-0.018424999,,,,,,,,,
1736666314356,,,,,,,,,,-0.0235125,-0.034925,-0.011,,,,,,,,,
1736666314365,,,,,,,,,,-0.011825,-0.0061875,-4.125E-4,,,,,,,,,
1736666314375,,,,,,,,,,0.003025,0.0235125,0.00605,,,,,,,,,
1736666314385,,,,,,,,,,0.0072875,0.0490875,0.00495,,,,,,,,,
1736666314395,,,,,,,,,,0.0094875,0.0416625,0.00495,,,,,,,,,
1736666314406,,,,,,,,,,0.0169125,0.0235125,0.0028875,,,,,,,,,
1736666314416,,,,,,,,,,0.018975,0.0023375,0.00385,,,,,,,,,
1736666314425,,,,,,,,,,0.0083875,-0.0158125,6.875E-4,,,,,,,,,
1736666314436,,,,,,,,,,-0.0064625,-0.0275,-0.0056375,,,,,,,,,
1736666314446,,,,,,,,,,-0.01815,-0.0275,-0.0089375,,,,,,,,,
1736666314456,,,,,,,,,,-0.0160875,-0.0254375,-0.0089375,,,,,,,,,
1736666314465,,,,,,,,,,-0.0075625,-0.01155,-0.003575,,,,,,,,,
1736666314475,,,,,,,,,,9.625E-4,0.012925,0.00385,,,,,,,,,
1736666314486,,,,,,,,,,0.01155,0.0257125,0.00385,,,,,,,,,
1736666314496,,,,,,,,,,0.021175,0.02255,0.0017875,,,,,,,,,
1736666314506,,,,,,,,,,0.0265375,0.015125,0.00715,,,,,,,,,
1736666314516,,,,,,,,,,0.0265375,0.0055,0.0103124995,,,,,,,,,
1736666314526,,,,,,,,,,0.0158125,-0.004125,0.014575,,,,,,,,,
1736666314536,,,,,,,,,,0.004125,-0.00935,0.0114124995,,,,,,,,,
1736666314546,,,,,,,,,,-0.0033,-0.01265,0.0092124995,,,,,,,,,
1736666314556,,,,,,,,,,-0.0022,-0.0158125,0.00495,,,,,,,,,
1736666314566,,,,,,,,,,-0.0012375,-0.0158125,6.875E-4,,,,,,,,,
1736666314576,,,,,,,,,,9.625E-4,-0.0072875,0.0017875,,,,,,,,,
1736666314586,,,,,,,,,,0.005225,1.375E-4,0.0114124995,,,,,,,,,
1736666314596,,,,,,,,,,0.006325,0.0097624995,0.022,,,,,,,,,
1736666314606,,,,,,,,,,-1.375E-4,0.02035,0.029424999,,,,,,,,,
1736666314616,,,,,,,,,,-0.0022,0.011825,0.0198,,,,,,,,,
1736666314626,,,,,,,,,,-0.0053625,-0.003025,0.00495,,,,,,,,,
1736666314636,,,,,,,,,,-0.011825,-0.013612499,-0.002475,,,,,,,,,
1736666314646,,,,,,,,,,-0.01925,-0.01265,-0.004675,,,,,,,,,
1736666314656,,,,,,,,,,-0.0246125,-0.01045,0.0017875,,,,,,,,,
1736666314666,,,,,,,,,,-0.026675,-0.01155,0.00605,,,,,,,,,
1736666314676,,,,,,,,,,-0.0309375,-0.003025,0.012375,,,,,,,,,
1736666314687,,,,,,,,,,-0.0309375,0.0055,0.0155375,,,,,,,,,
1736666314697,,,,,,,,,,-0.01925,0.014025,0.013475,,,,,,,,,
1736666314706,,,,,,,,,,-1.375E-4,0.0160875,0.0092124995,,,,,,,,,
1736666314716,,,,,,,,,,0.0158125,0.0086624995,0.00495,,,,,,,,,
1736666311734,,,,,,,,,,,,,-0.025602,0.099164,-0.258446,,,,,,
1736666311744,,,,,,,,,,,,,-0.033571,0.0637,-0.247469,,,,,,
1736666311755,,,,,,,,,,,,,-0.023062,0.028469,-0.236763,,,,,,
1736666311765,,,,,,,,,,,,,-0.017332,0.03415,-0.259879,,,,,,
1736666311775,,,,,,,,,,,,,0.013921,-0.045046,-0.333159,,,,,,
1736666311785,,,,,,,,,,,,,0.006082,-0.014909,-0.268405,,,,,,
1736666311794,,,,,,,,,,,,,0.051434,-0.07623,-0.234709,,,,,,
1736666311804,,,,,,,,,,,,,0.023135,-0.051959,-0.326401,,,,,,
1736666311814,,,,,,,,,,,,,0.078426,-0.152728,-0.269248,,,,,,
1736666311824,,,,,,,,,,,,,0.071332,-0.086542,-0.249177,,,,,,
1736666311834,,,,,,,,,,,,,0.039577,-0.155782,-0.14692,,,,,,
1736666311844,,,,,,,,,,,,,0.027622,-0.156632,-0.234483,,,,,,
1736666311854,,,,,,,,,,,,,0.066332,-0.10653,-0.211683,,,,,,
1736666311864,,,,,,,,,,,,,0.050531,-0.119228,-0.145228,,,,,,
1736666311875,,,,,,,,,,,,,-0.016627,-0.020261,-0.277648,,,,,,
1736666311885,,,,,,,,,,,,,0.008772,-0.071942,-0.301126,,,,,,
1736666311895,,,,,,,,,,,,,-0.069302,0.059883,-0.380178,,,,,,
1736666311904,,,,,,,,,,,,,-0.03484,0.014686,-0.330822,,,,,,
1736666311914,,,,,,,,,,,,,-0.024551,-0.01047,-0.227106,,,,,,
1736666311924,,,,,,,,,,,,,-0.025422,0.032372,-0.277043,,,,,,
1736666311935,,,,,,,,,,,,,-0.014587,-0.056442,-0.235436,,,,,,
1736666311946,,,,,,,,,,,,,-0.033577,-0.020555,-0.216274,,,,,,
1736666311955,,,,,,,,,,,,,-0.104789,0.273112,-1.396216,,,,,,
1736666311965,,,,,,,,,,,,,-0.029969,-3.4E-4,-0.921523,,,,,,
1736666311976,,,,,,,,,,,,,-0.121471,0.04395,-0.396624,,,,,,
1736666311986,,,,,,,,,,,,,-0.145437,0.260874,-1.215558,,,,,,
1736666311996,,,,,,,,,,,,,0.126056,-0.02944,0.167347,,,,,,
1736666312006,,,,,,,,,,,,,-0.010289,-0.341538,-0.158008,,,,,,
1736666312016,,,,,,,,,,,,,-0.038356,-0.317661,0.080503,,,,,,
1736666312026,,,,,,,,,,,,,0.126814,-0.142689,0.343717,,,,,,
1736666312036,,,,,,,,,,,,,-0.068801,0.003563,-0.294552,,,,,,
1736666312046,,,,,,,,,,,,,-0.188814,-0.086659,0.056214,,,,,,
1736666312055,,,,,,,,,,,,,0.066499,0.015234,-0.518756,,,,,,
1736666312065,,,,,,,,,,,,,0.055771,0.039786,-0.578167,,,,,,
1736666312076,,,,,,,,,,,,,-0.047128,-0.012802,-0.505779,,,,,,
1736666312086,,,,,,,,,,,,,-0.053041,-0.02367,-0.462608,,,,,,
1736666312095,,,,,,,,,,,,,0.038205,-0.043414,-0.563149,,,,,,
1736666312105,,,,,,,,,,,,,0.018612,-0.010394,-0.541715,,,,,,
1736666312115,,,,,,,,,,,,,0.05499,-0.167071,-0.361769,,,,,,
1736666312125,,,,,,,,,,,,,0.05751,-0.100249,-0.504504,,,,,,
1736666312136,,,,,,,,,,,,,0.095398,-0.116374,-0.342117,,,,,,
1736666312146,,,,,,,,,,,,,-0.006136,-0.143287,-0.258996,,,,,,
1736666312156,,,,,,,,,,,,,0.104553,-0.136212,-0.492074,,,,,,
1736666312166,,,,,,,,,,,,,0.160067,-0.071188,-0.416257,,,,,,
1736666312177,,,,,,,,,,,,,0.147216,-0.172099,-0.30187,,,,,,
1736666312187,,,,,,,,,,,,,0.081635,-0.115841,-0.382699,,,,,,
1736666312196,,,,,,,,,,,,,0.111104,-0.247261,-0.26643,,,,,,
1736666312206,,,,,,,,,,,,,0.130081,-0.178196,-0.237682,,,,,,
1736666312216,,,,,,,,,,,,,0.030054,-0.120874,-0.382899,,,,,,
1736666312226,,,,,,,,,,,,,0.050095,-0.178565,-0.337998,,,,,,
1736666312236,,,,,,,,,,,,,-0.12911,0.019597,-0.40373,,,,,,
1736666312246,,,,,,,,,,,,,-0.0406,-0.057653,-0.364169,,,,,,
1736666312256,,,,,,,,,,,,,-0.02784,0.096562,-0.555273,,,,,,
1736666312266,,,,,,,,,,,,,-0.07314,0.04332,-0.459652,,,,,,
1736666312276,,,,,,,,,,,,,-0.160577,0.003595,-0.50113,,,,,,
1736666312286,,,,,,,,,,,,,-0.055399,0.039947,-0.55254,,,,,,
1736666312296,,,,,,,,,,,,,-0.052368,-0.067392,-0.498461,,,,,,
1736666312306,,,,,,,,,,,,,-0.159516,-0.043475,-0.488871,,,,,,
1736666312316,,,,,,,,,,,,,0.001792,-0.166783,-0.390402,,,,,,
1736666312326,,,,,,,,,,,,,0.051248,-0.07762,-0.429958,,,,,,
1736666312337,,,,,,,,,,,,,-0.011215,-0.187273,-0.480407,,,,,,
1736666312347,,,,,,,,,,,,,-0.019747,-0.176704,-0.416738,,,,,,
1736666312356,,,,,,,,,,,,,-0.038943,-0.064534,-0.563582,,,,,,
1736666312366,,,,,,,,,,,,,-0.012015,-0.14341,-0.548632,,,,,,
1736666312376,,,,,,,,,,,,,-0.05504,-0.011281,-0.544171,,,,,,
1736666312386,,,,,,,,,,,,,-0.097392,-0.036446,-0.526384,,,,,,
1736666312396,,,,,,,,,,,,,-0.054082,-0.022685,-0.451415,,,,,,
1736666312407,,,,,,,,,,,,,-0.009238,-0.028332,-0.503356,,,,,,
1736666312417,,,,,,,,,,,,,-0.126031,-0.060316,-0.339868,,,,,,
1736666312427,,,,,,,,,,,,,-0.13201,-0.023565,-0.413722,,,,,,
1736666312437,,,,,,,,,,,,,-0.027334,-0.070471,-0.271512,,,,,,
1736666312447,,,,,,,,,,,,,-0.091298,-0.077173,-0.273664,,,,,,
1736666312458,,,,,,,,,,,,,0.06171,-0.029468,-0.421713,,,,,,
1736666312468,,,,,,,,,,,,,0.048784,-0.069815,-0.339399,,,,,,
1736666312477,,,,,,,,,,,,,-0.023868,0.123472,-0.592722,,,,,,
1736666312487,,,,,,,,,,,,,0.02674,-0.007299,-0.50588,,,,,,
1736666312497,,,,,,,,,,,,,4.2E-5,0.141584,-0.748826,,,,,,
1736666312507,,,,,,,,,,,,,-0.069605,0.132389,-0.697772,,,,,,
1736666312517,,,,,,,,,,,,,0.104471,-0.1205,-0.656498,,,,,,
1736666312527,,,,,,,,,,,,,0.011048,-0.026912,-0.735744,,,,,,
1736666312538,,,,,,,,,,,,,0.124791,-0.185891,-0.5309,,,,,,
1736666312548,,,,,,,,,,,,,0.106766,-0.155752,-0.560297,,,,,,
1736666312557,,,,,,,,,,,,,0.076542,-0.087863,-0.727818,,,,,,
1736666312567,,,,,,,,,,,,,0.063835,-0.158646,-0.5852,,,,,,
1736666312578,,,,,,,,,,,,,0.119631,-0.091547,-0.771705,,,,,,
1736666312588,,,,,,,,,,,,,0.054174,-0.07394,-0.823311,,,,,,
1736666312598,,,,,,,,,,,,,0.101572,-0.182007,-0.577792,,,,,,
1736666312608,,,,,,,,,,,,,0.111198,-0.147949,-0.662039,,,,,,
1736666312617,,,,,,,,,,,,,0.097448,-0.168888,-0.6451,,,,,,
1736666312627,,,,,,,,,,,,,0.111829,-0.185448,-0.547016,,,,,,
1736666312638,,,,,,,,,,,,,0.092366,-0.055658,-0.719847,,,,,,
1736666312648,,,,,,,,,,,,,0.083348,-0.118603,-0.646676,,,,,,
1736666312659,,,,,,,,,,,,,0.10657,8.96E-4,-0.739725,,,,,,
1736666312669,,,,,,,,,,,,,0.064725,-0.05128,-0.77137,,,,,,
1736666312679,,,,,,,,,,,,,0.073675,-0.034368,-0.578537,,,,,,
1736666312689,,,,,,,,,,,,,0.028879,-0.040703,-0.697042,,,,,,
1736666312699,,,,,,,,,,,,,-0.055022,-0.064068,-0.420112,,,,,,
1736666312709,,,,,,,,,,,,,0.073746,-0.064829,-0.486033,,,,,,
1736666312718,,,,,,,,,,,,,0.001733,-0.096443,-0.393628,,,,,,
1736666312728,,,,,,,,,,,,,-0.058043,-0.065367,-0.378227,,,,,,
1736666312739,,,,,,,,,,,,,0.142632,-0.109299,-0.448547,,,,,,
1736666312749,,,,,,,,,,,,,0.036803,-0.126439,-0.409168,,,,,,
1736666312759,,,,,,,,,,,,,0.08971,-0.096542,-0.664489,,,,,,
1736666312769,,,,,,,,,,,,,0.094104,-0.153726,-0.55505,,,,,,
1736666312778,,,,,,,,,,,,,-0.029081,0.019543,-0.734052,,,,,,
1736666312788,,,,,,,,,,,,,0.083857,-0.048553,-0.680786,,,,,,
1736666312799,,,,,,,,,,,,,-0.087862,0.018763,-0.616783,,,,,,
1736666312809,,,,,,,,,,,,,-0.056233,0.017696,-0.698258,,,,,,
1736666312818,,,,,,,,,,,,,-0.014328,0.026462,-0.442142,,,,,,
1736666312828,,,,,,,,,,,,,-0.108089,-0.226737,-0.63432,,,,,,
1736666312838,,,,,,,,,,,,,-0.166803,-0.100366,-0.448172,,,,,,
1736666312848,,,,,,,,,,,,,-0.029112,0.084712,-0.269531,,,,,,
1736666312858,,,,,,,,,,,,,0.022124,-0.035368,-0.564981,,,,,,
1736666312869,,,,,,,,,,,,,-0.065208,-0.107389,-0.499651,,,,,,
1736666312879,,,,,,,,,,,,,-0.039342,0.011733,-0.648417,,,,,,
1736666312889,,,,,,,,,,,,,0.048814,-0.058272,-0.625233,,,,,,
1736666312900,,,,,,,,,,,,,0.00349,0.051674,-0.852316,,,,,,
1736666312910,,,,,,,,,,,,,-0.012359,-0.007625,-0.754233,,,,,,
1736666312919,,,,,,,,,,,,,-0.082202,0.110129,-0.844424,,,,,,
1736666312929,,,,,,,,,,,,,-3.05E-4,0.031547,-0.837101,,,,,,
1736666312939,,,,,,,,,,,,,-0.068621,-0.005947,-0.687863,,,,,,
1736666312950,,,,,,,,,,,,,-0.093061,0.036323,-0.810498,,,,,,
1736666312959,,,,,,,,,,,,,0.04148,-0.140356,-0.479523,,,,,,
1736666312969,,,,,,,,,,,,,-0.021912,-0.094429,-0.566256,,,,,,
1736666312979,,,,,,,,,,,,,0.022803,-0.189018,-0.502897,,,,,,
1736666312989,,,,,,,,,,,,,0.019645,-0.152434,-0.44793,,,,,,
1736666313000,,,,,,,,,,,,,0.037614,-0.136742,-0.456849,,,,,,
1736666313010,,,,,,,,,,,,,0.042917,-0.155136,-0.467638,,,,,,
1736666313019,,,,,,,,,,,,,0.057094,-0.154301,-0.634074,,,,,,
1736666313029,,,,,,,,,,,,,0.062185,-0.170171,-0.546305,,,,,,
1736666313039,,,,,,,,,,,,,0.048943,-0.095487,-0.691589,,,,,,
1736666313049,,,,,,,,,,,,,0.054633,-0.138131,-0.658382,,,,,,
1736666313060,,,,,,,,,,,,,0.029686,-0.136253,-0.722093,,,,,,
1736666313070,,,,,,,,,,,,,0.051645,-0.095351,-0.699725,,,,,,
1736666313080,,,,,,,,,,,,,0.035428,-0.211241,-0.624484,,,,,,
1736666313090,,,,,,,,,,,,,0.057899,-0.170862,-0.709563,,,,,,
1736666313099,,,,,,,,,,,,,-7.77E-4,-0.164207,-0.458517,,,,,,
1736666313110,,,,,,,,,,,,,0.035383,-0.210603,-0.526217,,,,,,
1736666313120,,,,,,,,,,,,,0.001325,-0.140463,-0.658889,,,,,,
1736666313130,,,,,,,,,,,,,0.002537,-0.276973,-0.579368,,,,,,
1736666313140,,,,,,,,,,,,,-0.055414,-0.081386,-0.434793,,,,,,
1736666313150,,,,,,,,,,,,,0.103181,0.017107,-0.420906,,,,,,
1736666313161,,,,,,,,,,,,,-0.047397,-0.06816,-0.532479,,,,,,
1736666313171,,,,,,,,,,,,,-0.119375,-0.112212,-0.4916,,,,,,
1736666313180,,,,,,,,,,,,,0.002602,-0.063314,-0.748314,,,,,,
1736666313190,,,,,,,,,,,,,0.015282,-0.163346,-0.620666,,,,,,
1736666313200,,,,,,,,,,,,,-0.002771,-0.055597,-0.696271,,,,,,
1736666313210,,,,,,,,,,,,,0.063724,-0.044478,-0.695604,,,,,,
1736666313220,,,,,,,,,,,,,-0.09342,-0.059168,-0.503575,,,,,,
1736666313230,,,,,,,,,,,,,-0.115295,-0.089207,-0.645257,,,,,,
1736666313240,,,,,,,,,,,,,0.028958,-0.264778,-0.475727,,,,,,
1736666313250,,,,,,,,,,,,,-0.009899,-0.152125,-0.427285,,,,,,
1736666313261,,,,,,,,,,,,,0.163269,-0.202382,-0.434343,,,,,,
1736666313271,,,,,,,,,,,,,0.130014,-0.193299,-0.446897,,,,,,
1736666313280,,,,,,,,,,,,,0.031737,-0.156258,-0.595263,,,,,,
1736666313290,,,,,,,,,,,,,0.040763,-0.228373,-0.529128,,,,,,
1736666313300,,,,,,,,,,,,,-0.078193,-0.024452,-0.703973,,,,,,
1736666313310,,,,,,,,,,,,,-0.031433,-0.086822,-0.661657,,,,,,
1736666313320,,,,,,,,,,,,,0.024498,-0.076693,-0.711953,,,,,,
1736666313330,,,,,,,,,,,,,0.021545,-0.081284,-0.642595,,,,,,
1736666313341,,,,,,,,,,,,,0.060908,-0.147286,-0.624167,,,,,,
1736666313351,,,,,,,,,,,,,0.065421,-0.134341,-0.691044,,,,,,
1736666313362,,,,,,,,,,,,,0.028581,-0.118397,-0.640253,,,,,,
1736666313372,,,,,,,,,,,,,0.004858,-0.143353,-0.64441,,,,,,
1736666313382,,,,,,,,,,,,,-0.08254,-0.121219,-0.497968,,,,,,
1736666313392,,,,,,,,,,,,,0.042318,-0.114569,-0.533063,,,,,,
1736666313401,,,,,,,,,,,,,-0.020563,-0.103954,-0.582123,,,,,,
1736666313411,,,,,,,,,,,,,-0.080065,-0.148756,-0.515558,,,,,,
1736666313421,,,,,,,,,,,,,0.016617,-0.166662,-0.579227,,,,,,
1736666313431,,,,,,,,,,,,,0.006328,-0.138448,-0.573804,,,,,,
1736666313442,,,,,,,,,,,,,0.021005,-0.155386,-0.608637,,,,,,
1736666313452,,,,,,,,,,,,,0.0421,-0.19281,-0.63413,,,,,,
1736666313461,,,,,,,,,,,,,0.027524,-0.050013,-0.559737,,,,,,
1736666313471,,,,,,,,,,,,,-0.007056,-0.107215,-0.552575,,,,,,
1736666313481,,,,,,,,,,,,,-0.052063,-0.063272,-0.7428,,,,,,
1736666313491,,,,,,,,,,,,,-0.028303,-0.071105,-0.658664,,,,,,
1736666313501,,,,,,,,,,,,,-0.046871,-0.085214,-0.591999,,,,,,
1736666313511,,,,,,,,,,,,,-0.045482,-0.101188,-0.714999,,,,,,
1736666313521,,,,,,,,,,,,,0.027089,-0.135297,-0.385129,,,,,,
1736666313531,,,,,,,,,,,,,0.003738,-0.120079,-0.418309,,,,,,
1736666313542,,,,,,,,,,,,,0.11955,-0.17944,-0.524549,,,,,,
1736666313552,,,,,,,,,,,,,0.070215,-0.187092,-0.473334,,,,,,
1736666313561,,,,,,,,,,,,,-0.022915,-0.150561,-0.781373,,,,,,
1736666313572,,,,,,,,,,,,,0.110602,-0.177454,-0.61571,,,,,,
1736666313582,,,,,,,,,,,,,-4.7E-4,-0.117581,-0.622036,,,,,,
1736666313592,,,,,,,,,,,,,0.004499,-0.132214,-0.759165,,,,,,
1736666313602,,,,,,,,,,,,,-8.19E-4,-0.204472,-0.573045,,,,,,
1736666313612,,,,,,,,,,,,,-0.047547,-0.220354,-0.559283,,,,,,
1736666313622,,,,,,,,,,,,,0.001124,-0.071498,-0.576925,,,,,,
1736666313632,,,,,,,,,,,,,0.048012,-0.075061,-0.503255,,,,,,
1736666313643,,,,,,,,,,,,,-0.020349,-0.085416,-0.653077,,,,,,
1736666313653,,,,,,,,,,,,,0.00721,-0.103766,-0.608632,,,,,,
1736666313663,,,,,,,,,,,,,0.061679,-0.123887,-0.509825,,,,,,
1736666313673,,,,,,,,,,,,,-0.006863,-0.121412,-0.622556,,,,,,
1736666313682,,,,,,,,,,,,,0.018922,-0.07289,-0.475546,,,,,,
1736666313692,,,,,,,,,,,,,0.030335,-0.121321,-0.423597,,,,,,
1736666313702,,,,,,,,,,,,,0.003704,-0.070235,-0.724481,,,,,,
1736666313712,,,,,,,,,,,,,-0.011794,-0.058022,-0.563388,,,,,,
1736666313722,,,,,,,,,,,,,-0.005474,-0.159342,-0.795764,,,,,,
1736666313732,,,,,,,,,,,,,-0.038185,-0.127012,-0.842833,,,,,,
1736666313742,,,,,,,,,,,,,-0.054447,-0.206517,-0.520673,,,,,,
1736666313752,,,,,,,,,,,,,-0.049723,-0.171158,-0.718804,,,,,,
1736666313763,,,,,,,,,,,,,0.049212,-0.231268,-0.32877,,,,,,
1736666313773,,,,,,,,,,,,,0.020152,-0.187291,-0.36042,,,,,,
1736666313783,,,,,,,,,,,,,0.092137,-0.226484,-0.608482,,,,,,
1736666313793,,,,,,,,,,,,,0.068165,-0.236924,-0.453996,,,,,,
1736666313803,,,,,,,,,,,,,-0.046576,-0.123702,-0.738442,,,,,,
1736666313813,,,,,,,,,,,,,0.022157,-0.165466,-0.770501,,,,,,
1736666313823,,,,,,,,,,,,,-0.111164,-0.059891,-0.39882,,,,,,
1736666313833,,,,,,,,,,,,,-0.059866,-0.090524,-0.550654,,,,,,
1736666313843,,,,,,,,,,,,,0.051117,-0.062651,-0.335995,,,,,,
1736666313853,,,,,,,,,,,,,-0.029565,-0.063342,-0.32287,,,,,,
1736666313863,,,,,,,,,,,,,-0.023726,-0.069789,-0.606255,,,,,,
1736666313873,,,,,,,,,,,,,0.017472,-0.086447,-0.447897,,,,,,
1736666313883,,,,,,,,,,,,,0.004431,-0.090571,-0.611686,,,,,,
1736666313893,,,,,,,,,,,,,0.003228,-0.072808,-0.63846,,,,,,
1736666313903,,,,,,,,,,,,,0.048376,-0.063559,-0.499691,,,,,,
1736666313913,,,,,,,,,,,,,-0.039843,-0.157477,-0.598572,,,,,,
1736666313923,,,,,,,,,,,,,0.072359,-0.135768,-0.485313,,,,,,
1736666313933,,,,,,,,,,,,,0.106841,-0.116516,-0.480129,,,,,,
1736666313943,,,,,,,,,,,,,0.044168,-0.131657,-0.589793,,,,,,
1736666313953,,,,,,,,,,,,,0.031902,-0.127127,-0.546175,,,,,,
1736666313963,,,,,,,,,,,,,9.51E-4,-0.134864,-0.486264,,,,,,
1736666313973,,,,,,,,,,,,,8.42E-4,-0.120267,-0.553903,,,,,,
1736666313983,,,,,,,,,,,,,0.067997,-0.18995,-0.379062,,,,,,
1736666313993,,,,,,,,,,,,,0.055431,-0.166113,-0.395197,,,,,,
1736666314003,,,,,,,,,,,,,0.067166,-0.110589,-0.465356,,,,,,
1736666314013,,,,,,,,,,,,,0.084142,-0.160404,-0.445291,,,,,,
1736666314023,,,,,,,,,,,,,-0.068098,-0.037168,-0.486363,,,,,,
1736666314034,,,,,,,,,,,,,-0.001339,-0.076987,-0.462634,,,,,,
1736666314044,,,,,,,,,,,,,0.045515,-0.13315,-0.440321,,,,,,
1736666314054,,,,,,,,,,,,,0.009728,-0.07617,-0.486389,,,,,,
1736666314065,,,,,,,,,,,,,0.069457,-0.155319,-0.437386,,,,,,
1736666314074,,,,,,,,,,,,,0.033367,-0.181047,-0.389785,,,,,,
1736666314084,,,,,,,,,,,,,-0.037264,0.013214,-0.565223,,,,,,
1736666314094,,,,,,,,,,,,,0.052964,-0.104208,-0.51329,,,,,,
1736666314104,,,,,,,,,,,,,-0.039535,0.061321,-0.497943,,,,,,
1736666314114,,,,,,,,,,,,,-0.031601,0.029807,-0.524941,,,,,,
1736666314124,,,,,,,,,,,,,-0.00134,-0.075799,-0.519022,,,,,,
1736666314134,,,,,,,,,,,,,-0.028749,-0.020806,-0.513054,,,,,,
1736666314145,,,,,,,,,,,,,-0.046301,-0.077518,-0.482128,,,,,,
1736666314155,,,,,,,,,,,,,-0.037167,-0.094672,-0.541115,,,,,,
1736666314164,,,,,,,,,,,,,0.001872,-0.120979,-0.248198,,,,,,
1736666314174,,,,,,,,,,,,,0.008374,-0.082666,-0.337778,,,,,,
1736666314185,,,,,,,,,,,,,0.062581,-0.182608,-0.289344,,,,,,
1736666314195,,,,,,,,,,,,,0.054698,-0.176092,-0.250196,,,,,,
1736666314205,,,,,,,,,,,,,0.035505,-0.092829,-0.369074,,,,,,
1736666314215,,,,,,,,,,,,,0.057808,-0.207219,-0.327912,,,,,,
1736666314224,,,,,,,,,,,,,-0.061903,0.024857,-0.478635,,,,,,
1736666314234,,,,,,,,,,,,,0.004326,-6.62E-4,-0.38483,,,,,,
1736666314244,,,,,,,,,,,,,-0.063673,0.009096,-0.285616,,,,,,
1736666314254,,,,,,,,,,,,,-0.111104,0.019281,-0.433461,,,,,,
1736666314265,,,,,,,,,,,,,0.074843,-0.135764,-0.069976,,,,,,
1736666314275,,,,,,,,,,,,,0.029586,-0.053416,-0.125288,,,,,,
1736666314286,,,,,,,,,,,,,0.023622,-0.10438,-0.156208,,,,,,
1736666314296,,,,,,,,,,,,,0.040602,-0.135101,-0.103538,,,,,,
1736666314305,,,,,,,,,,,,,-0.002722,-0.062661,-0.422689,,,,,,
1736666314315,,,,,,,,,,,,,0.01365,-0.077846,-0.260322,,,,,,
1736666314326,,,,,,,,,,,,,-0.005099,-0.049895,-0.420627,,,,,,
1736666314336,,,,,,,,,,,,,-0.002005,-0.05813,-0.453396,,,,,,
1736666314345,,,,,,,,,,,,,-0.002056,-0.089087,-0.424225,,,,,,
1736666314355,,,,,,,,,,,,,-0.015599,-0.0566,-0.434181,,,,,,
1736666314365,,,,,,,,,,,,,0.05837,-0.102425,-0.347267,,,,,,
1736666314375,,,,,,,,,,,,,0.046832,-0.122599,-0.357237,,,,,,
1736666314385,,,,,,,,,,,,,-0.009073,-0.072223,-0.12313,,,,,,
1736666314395,,,,,,,,,,,,,0.005559,-0.074371,-0.276805,,,,,,
1736666314405,,,,,,,,,,,,,-0.027777,-0.039306,-0.20229,,,,,,
1736666314415,,,,,,,,,,,,,-0.055716,-0.068137,-0.151307,,,,,,
1736666314425,,,,,,,,,,,,,0.015141,-0.056644,-0.29767,,,,,,
1736666314435,,,,,,,,,,,,,2.96E-4,-0.026007,-0.288084,,,,,,
1736666314445,,,,,,,,,,,,,0.027475,-0.058851,-0.218301,,,,,,
1736666314455,,,,,,,,,,,,,0.054677,-0.051899,-0.197403,,,,,,
1736666314465,,,,,,,,,,,,,-0.019925,-0.062722,-0.161943,,,,,,
1736666314475,,,,,,,,,,,,,-0.018924,-0.07275,-0.224534,,,,,,
1736666314485,,,,,,,,,,,,,-0.045311,0.004423,-0.147874,,,,,,
1736666314496,,,,,,,,,,,,,0.006653,-0.022337,-0.129652,,,,,,
1736666314507,,,,,,,,,,,,,-0.047304,0.005559,-0.229409,,,,,,
1736666314517,,,,,,,,,,,,,-0.018236,0.007666,-0.167593,,,,,,
1736666314527,,,,,,,,,,,,,0.033421,-0.04327,-0.216529,,,,,,
1736666314537,,,,,,,,,,,,,-0.008253,-0.013274,-0.252303,,,,,,
1736666314546,,,,,,,,,,,,,0.051709,-0.052769,-0.160464,,,,,,
1736666314556,,,,,,,,,,,,,-0.001756,-0.072954,-0.206487,,,,,,
1736666314566,,,,,,,,,,,,,-4.8E-5,-0.008611,-0.211798,,,,,,
1736666314576,,,,,,,,,,,,,0.021419,-0.036096,-0.218143,,,,,,
1736666314586,,,,,,,,,,,,,0.027178,-0.088231,-0.275216,,,,,,
1736666314596,,,,,,,,,,,,,0.023726,-0.048718,-0.251597,,,,,,
1736666314606,,,,,,,,,,,,,0.059633,-0.155098,-0.241776,,,,,,
1736666314616,,,,,,,,,,,,,0.070288,-0.13011,-0.243866,,,,,,
1736666314626,,,,,,,,,,,,,0.040595,-0.025471,-0.233636,,,,,,
1736666314636,,,,,,,,,,,,,0.014952,-0.105842,-0.264582,,,,,,
1736666314646,,,,,,,,,,,,,0.042116,0.055238,-0.182127,,,,,,
1736666314656,,,,,,,,,,,,,0.025932,0.015937,-0.20485,,,,,,
1736666314666,,,,,,,,,,,,,-0.005724,-0.027575,-0.163581,,,,,,
1736666314676,,,,,,,,,,,,,-0.022077,0.01273,-0.192772,,,,,,
1736666314687,,,,,,,,,,,,,-0.01466,-0.089727,0.042407,,,,,,
1736666314697,,,,,,,,,,,,,0.001927,-0.060708,-0.046044,,,,,,
1736666314706,,,,,,,,,,,,,-0.006313,-0.003991,-0.013428,,,,,,
1736666314716,,,,,,,,,,,,,-0.00741,-0.055728,0.030057,,,,,,
1736666311734,,,,,,,,,,,,,,,,0.043233,-0.043317,-0.811328,,,
1736666311744,,,,,,,,,,,,,,,,0.043576,-0.043607,-0.811346,,,
1736666311755,,,,,,,,,,,,,,,,0.043845,-0.043782,-0.811337,,,
1736666311765,,,,,,,,,,,,,,,,0.044181,-0.043992,-0.811297,,,
1736666311775,,,,,,,,,,,,,,,,0.044222,-0.044041,-0.81127,,,
1736666311785,,,,,,,,,,,,,,,,0.044311,-0.04416,-0.811214,,,
1736666311794,,,,,,,,,,,,,,,,0.044025,-0.044088,-0.811296,,,
1736666311804,,,,,,,,,,,,,,,,0.043894,-0.044046,-0.811303,,,
1736666311814,,,,,,,,,,,,,,,,0.043268,-0.04376,-0.811576,,,
1736666311824,,,,,,,,,,,,,,,,0.042843,-0.043694,-0.81185,,,
1736666311834,,,,,,,,,,,,,,,,0.042361,-0.043294,-0.812045,,,
1736666311844,,,,,,,,,,,,,,,,0.041981,-0.042918,-0.812286,,,
1736666311854,,,,,,,,,,,,,,,,0.041602,-0.042847,-0.812419,,,
1736666311864,,,,,,,,,,,,,,,,0.041216,-0.042758,-0.812649,,,
1736666311875,,,,,,,,,,,,,,,,0.041365,-0.04293,-0.812743,,,
1736666311885,,,,,,,,,,,,,,,,0.041302,-0.042956,-0.812846,,,
1736666311894,,,,,,,,,,,,,,,,0.041862,-0.043339,-0.812869,,,
1736666311904,,,,,,,,,,,,,,,,0.042165,-0.043591,-0.812906,,,
1736666311914,,,,,,,,,,,,,,,,0.042311,-0.043666,-0.812882,,,
1736666311924,,,,,,,,,,,,,,,,0.042577,-0.043914,-0.812775,,,
1736666311935,,,,,,,,,,,,,,,,0.042549,-0.043898,-0.812844,,,
1736666311946,,,,,,,,,,,,,,,,0.042691,-0.043992,-0.812811,,,
1736666311956,,,,,,,,,,,,,,,,0.04458,-0.045516,-0.812955,,,
1736666311966,,,,,,,,,,,,,,,,0.045316,-0.045554,-0.813097,,,
1736666311976,,,,,,,,,,,,,,,,0.046311,-0.044801,-0.813221,,,
