timestamp,acc_x,acc_y,acc_z,mag_x,mag_y,mag_z,gra_x,gra_y,gra_z,gyr_x,gyr_y,gyr_z,linear_x,linear_y,linear_z,rot_x,rot_y,rot_z,light,pressure,proximity
1736664893803,-0.83595,3.6670501,9.46395,,,,,,,,,,,,,,,,,,
1736664893813,-0.77895004,3.7360501,9.057,,,,,,,,,,,,,,,,,,
1736664893823,-0.822,3.7240503,8.746051,,,,,,,,,,,,,,,,,,
1736664893833,-0.81000006,3.86295,8.620951,,,,,,,,,,,,,,,,,,
1736664893844,-0.76905006,4.05495,8.566051,,,,,,,,,,,,,,,,,,
1736664893854,-0.66405004,4.0690503,8.439,,,,,,,,,,,,,,,,,,
1736664893863,-0.50805,4.1119504,8.51595,,,,,,,,,,,,,,,,,,
1736664893874,-0.43395,4.1290503,8.63805,,,,,,,,,,,,,,,,,,
1736664893885,-0.40305,4.04505,8.81295,,,,,,,,,,,,,,,,,,
1736664893894,-0.39795002,3.9090002,9.09,,,,,,,,,,,,,,,,,,
1736664893904,-0.36,3.7890003,9.271951,,,,,,,,,,,,,,,,,,
1736664893914,-0.31005,3.6790502,9.318001,,,,,,,,,,,,,,,,,,
1736664893924,-0.20400001,3.5830503,9.222,,,,,,,,,,,,,,,,,,
1736664893934,-0.14400001,3.5689502,9.12405,,,,,,,,,,,,,,,,,,
1736664893944,-0.13695,3.6000001,9.073951,,,,,,,,,,,,,,,,,,
1736664893954,-0.19005,3.5809503,8.95905,,,,,,,,,,,,,,,,,,
1736664893964,-0.21900001,3.5779502,8.86305,,,,,,,,,,,,,,,,,,
1736664893974,-0.28095,3.6499503,8.950951,,,,,,,,,,,,,,,,,,
1736664893984,-0.37905002,3.7189503,9.186001,,,,,,,,,,,,,,,,,,
1736664893994,-0.41295,3.66195,9.28005,,,,,,,,,,,,,,,,,,
1736664894004,-0.32595003,3.7339501,9.354,,,,,,,,,,,,,,,,,,
1736664894015,-0.15405001,3.7600503,9.259951,,,,,,,,,,,,,,,,,,
1736664894024,-0.16605,3.7510502,9.069,,,,,,,,,,,,,,,,,,
1736664894035,-0.18300001,3.8130002,9.241051,,,,,,,,,,,,,,,,,,
1736664894044,-0.22305001,3.9109502,9.17895,,,,,,,,,,,,,,,,,,
1736664894055,-0.22605,3.9760501,9.066,,,,,,,,,,,,,,,,,,
1736664894065,-0.24000001,3.9439502,9.15495,,,,,,,,,,,,,,,,,,
1736664894074,-0.29505002,3.8940003,9.162001,,,,,,,,,,,,,,,,,,
1736664894084,-0.34800002,3.8029501,9.14805,,,,,,,,,,,,,,,,,,
1736664894096,-0.38895002,3.7860003,9.126,,,,,,,,,,,,,,,,,,
1736664894105,-0.39105,3.7770002,9.02805,,,,,,,,,,,,,,,,,,
1736664894115,-0.36195,3.75795,8.96595,,,,,,,,,,,,,,,,,,
1736664894125,-0.38205,3.7339501,8.865001,,,,,,,,,,,,,,,,,,
1736664894136,-0.384,3.7819502,8.772,,,,,,,,,,,,,,,,,,
1736664894145,-0.38205,3.89895,8.722051,,,,,,,,,,,,,,,,,,
1736664894155,-0.42705002,3.8749502,8.75805,,,,,,,,,,,,,,,,,,
1736664894165,-0.48705003,3.8850002,8.88195,,,,,,,,,,,,,,,,,,
1736664894175,-0.48000002,3.9640503,9.02595,,,,,,,,,,,,,,,,,,
1736664894185,-0.46995002,3.86295,9.0709505,,,,,,,,,,,,,,,,,,
1736664894196,-0.49605003,3.86805,9.0709505,,,,,,,,,,,,,,,,,,
1736664894205,-0.46800002,4.0069504,9.073951,,,,,,,,,,,,,,,,,,
1736664894216,-0.441,4.08795,9.00405,,,,,,,,,,,,,,,,,,
1736664894225,-0.48705003,4.071,8.96805,,,,,,,,,,,,,,,,,,
1736664894235,-0.48900002,4.0279503,8.96595,,,,,,,,,,,,,,,,,,
1736664894245,-0.46800002,3.96795,9.02595,,,,,,,,,,,,,,,,,,
1736664894255,-0.44400004,3.834,9.02805,,,,,,,,,,,,,,,,,,
1736664894265,-0.40995002,3.7429502,9.019051,,,,,,,,,,,,,,,,,,
1736664894275,-0.39105,3.7549503,9.009001,,,,,,,,,,,,,,,,,,
1736664894285,-0.393,3.7909503,9.10005,,,,,,,,,,,,,,,,,,
1736664894296,-0.37005,3.8440502,9.19305,,,,,,,,,,,,,,,,,,
1736664894305,-0.31905,3.8560503,9.19995,,,,,,,,,,,,,,,,,,
1736664894316,-0.252,3.89895,9.11205,,,,,,,,,,,,,,,,,,
1736664894326,-0.28305,3.93495,8.99895,,,,,,,,,,,,,,,,,,
1736664894336,-0.35505003,3.9180002,8.892,,,,,,,,,,,,,,,,,,
1736664894347,-0.39795002,3.86505,8.88,,,,,,,,,,,,,,,,,,
1736664894356,-0.42705002,3.8730001,8.974951,,,,,,,,,,,,,,,,,,
1736664894366,-0.39600003,3.8610003,9.0400505,,,,,,,,,,,,,,,,,,
1736664894377,-0.31695002,3.8250003,9.064051,,,,,,,,,,,,,,,,,,
1736664894387,-0.23505001,3.8419502,9.153001,,,,,,,,,,,,,,,,,,
1736664894396,-0.21900001,3.9229503,9.15495,,,,,,,,,,,,,,,,,,
1736664894406,-0.26700002,3.9780002,9.057,,,,,,,,,,,,,,,,,,
1736664894417,-0.38895002,4.0350003,8.913,,,,,,,,,,,,,,,,,,
1736664894426,-0.48705003,4.13595,8.868,,,,,,,,,,,,,,,,,,
1736664894437,-0.53205,4.1929502,8.844001,,,,,,,,,,,,,,,,,,
1736664894446,-0.52005005,4.1860504,8.841001,,,,,,,,,,,,,,,,,,
1736664894457,-0.45795003,4.12395,8.937,,,,,,,,,,,,,,,,,,
1736664894466,-0.34800002,4.0470004,9.066,,,,,,,,,,,,,,,,,,
1736664894477,-0.27405003,3.9439502,9.13605,,,,,,,,,,,,,,,,,,
1736664894486,-0.21900001,3.8940003,9.17205,,,,,,,,,,,,,,,,,,
1736664894496,-0.192,3.9250503,9.150001,,,,,,,,,,,,,,,,,,
1736664894506,-0.17805001,3.9850502,9.061951,,,,,,,,,,,,,,,,,,
1736664894516,-0.19005,4.05,8.911051,,,,,,,,,,,,,,,,,,
1736664894527,-0.22800002,4.11,8.70495,,,,,,,,,,,,,,,,,,
1736664894536,-0.28305,4.122,8.583,,,,,,,,,,,,,,,,,,
1736664894548,-0.29505002,4.0789504,8.547,,,,,,,,,,,,,,,,,,
1736664894557,-0.31905,4.01895,8.611951,,,,,,,,,,,,,,,,,,
1736664894567,-0.32895002,3.9520502,8.722051,,,,,,,,,,,,,,,,,,
1736664894577,-0.32595003,3.89895,8.944051,,,,,,,,,,,,,,,,,,
1736664894587,-0.31395,3.9420002,9.13605,,,,,,,,,,,,,,,,,,
1736664894597,-0.26700002,4.03305,9.16695,,,,,,,,,,,,,,,,,,
1736664894608,-0.231,4.1620502,8.98005,,,,,,,,,,,,,,,,,,
1736664894617,-0.22095,4.3230004,8.68305,,,,,,,,,,,,,,,,,,
1736664894628,-0.32595003,4.36305,8.43,,,,,,,,,,,,,,,,,,
1736664894637,-0.42195,4.335,8.358001,,,,,,,,,,,,,,,,,,
1736664894647,-0.50805,4.37505,8.370001,,,,,,,,,,,,,,,,,,
1736664894658,-0.57495004,4.4040003,8.38395,,,,,,,,,,,,,,,,,,
1736664894668,-0.573,4.4230504,8.458051,,,,,,,,,,,,,,,,,,
1736664894677,-0.58005005,4.46595,8.54205,,,,,,,,,,,,,,,,,,
1736664894688,-0.54405004,4.50705,8.63805,,,,,,,,,,,,,,,,,,
1736664894697,-0.59505004,4.52895,8.607,,,,,,,,,,,,,,,,,,
1736664894708,-0.61605,4.4929504,8.54895,,,,,,,,,,,,,,,,,,
1736664894717,-0.513,4.4160004,8.427,,,,,,,,,,,,,,,,,,
1736664894727,-0.56805,4.452,8.18295,,,,,,,,,,,,,,,,,,
1736664894738,-0.59205,4.5930004,8.24505,,,,,,,,,,,,,,,,,,
1736664894748,-0.57795,4.70295,8.49195,,,,,,,,,,,,,,,,,,
1736664894757,-0.62595004,4.73505,8.752951,,,,,,,,,,,,,,,,,,
1736664894768,-0.73605,4.65105,9.033,,,,,,,,,,,,,,,,,,
1736664894778,-0.85605,4.5,9.229051,,,,,,,,,,,,,,,,,,
1736664894788,-0.93900007,4.4929504,9.283951,,,,,,,,,,,,,,,,,,
1736664894798,-0.94905007,4.54995,9.20505,,,,,,,,,,,,,,,,,,
1736664894809,-0.95100003,4.5529504,9.033,,,,,,,,,,,,,,,,,,
1736664894818,-0.96795005,4.60995,8.808001,,,,,,,,,,,,,,,,,,
1736664894829,-0.98700005,4.63905,8.49195,,,,,,,,,,,,,,,,,,
1736664894838,-1.0330501,4.6000504,8.20395,,,,,,,,,,,,,,,,,,
1736664894848,-1.1050501,4.43295,7.9909506,,,,,,,,,,,,,,,,,,
1736664894858,-1.095,4.50495,7.8450003,,,,,,,,,,,,,,,,,,
1736664894868,-0.99405,4.6579504,7.6969504,,,,,,,,,,,,,,,,,,
1736664894878,-1.0330501,4.56495,7.7449503,,,,,,,,,,,,,,,,,,
1736664894888,-1.12395,4.44495,7.977,,,,,,,,,,,,,,,,,,
1736664894899,-1.09695,4.44495,8.08695,,,,,,,,,,,,,,,,,,
1736664894908,-1.0639501,4.6320004,7.9600506,,,,,,,,,,,,,,,,,,
1736664894919,-1.04205,4.7779503,7.7710505,,,,,,,,,,,,,,,,,,
1736664894928,-1.0380001,4.9090505,7.7059503,,,,,,,,,,,,,,,,,,
1736664894939,-1.2360001,5.10795,7.8,,,,,,,,,,,,,,,,,,
1736664894948,-1.3920001,5.2660503,8.00595,,,,,,,,,,,,,,,,,,
1736664894958,-1.4569501,5.3710504,8.238,,,,,,,,,,,,,,,,,,
1736664893827,,,,-22.5,-21.300001,-21.300001,,,,,,,,,,,,,,,
1736664893854,,,,-8.34375,-20.456251,-18.84375,,,,,,,,,,,,,,,
1736664893874,,,,-8.212501,-20.456251,-19.612501,,,,,,,,,,,,,,,
1736664893894,,,,-8.64375,-20.643751,-20.400002,,,,,,,,,,,,,,,
1736664893914,,,,-8.75625,-21.0,-21.6,,,,,,,,,,,,,,,
1736664893935,,,,-8.75625,-21.35625,-22.0125,,,,,,,,,,,,,,,
1736664893955,,,,-8.75625,-21.6,-22.44375,,,,,,,,,,,,,,,
1736664893975,,,,-8.400001,-21.900002,-22.3125,,,,,,,,,,,,,,,
1736664893995,,,,-8.64375,-21.7875,-22.143751,,,,,,,,,,,,,,,
1736664894015,,,,-8.700001,-21.65625,-21.900002,,,,,,,,,,,,,,,
1736664894036,,,,-8.75625,-21.487501,-21.300001,,,,,,,,,,,,,,,
1736664894056,,,,-8.8125,-21.65625,-21.4125,,,,,,,,,,,,,,,
1736664894075,,,,-8.512501,-21.6,-21.112501,,,,,,,,,,,,,,,
1736664894095,,,,-8.64375,-21.6,-20.8125,,,,,,,,,,,,,,,
1736664894115,,,,-8.64375,-21.65625,-20.8125,,,,,,,,,,,,,,,
1736664894135,,,,-8.75625,-21.35625,-20.94375,,,,,,,,,,,,,,,
1736664894155,,,,-8.8125,-21.487501,-21.056252,,,,,,,,,,,,,,,
1736664894175,,,,-8.64375,-21.487501,-21.54375,,,,,,,,,,,,,,,
1736664894195,,,,-8.512501,-21.65625,-21.900002,,,,,,,,,,,,,,,
1736664894215,,,,-8.45625,-21.54375,-21.65625,,,,,,,,,,,,,,,
1736664894236,,,,-8.34375,-21.54375,-21.54375,,,,,,,,,,,,,,,
1736664894256,,,,-8.45625,-21.54375,-21.35625,,,,,,,,,,,,,,,
1736664894275,,,,-8.8125,-21.487501,-21.056252,,,,,,,,,,,,,,,
1736664894295,,,,-8.8125,-21.35625,-21.54375,,,,,,,,,,,,,,,
1736664894315,,,,-9.1125,-21.54375,-21.712502,,,,,,,,,,,,,,,
1736664894335,,,,-9.3,-21.300001,-21.900002,,,,,,,,,,,,,,,
1736664894355,,,,-9.3,-21.0,-21.900002,,,,,,,,,,,,,,,
1736664894376,,,,-9.243751,-21.1875,-21.6,,,,,,,,,,,,,,,
1736664894395,,,,-9.4125,-21.300001,-21.35625,,,,,,,,,,,,,,,
1736664894415,,,,-9.3,-21.35625,-21.6,,,,,,,,,,,,,,,
1736664894435,,,,-9.0,-21.65625,-21.712502,,,,,,,,,,,,,,,
1736664894455,,,,-9.4125,-21.7875,-21.84375,,,,,,,,,,,,,,,
1736664894475,,,,-9.243751,-21.54375,-22.0125,,,,,,,,,,,,,,,
1736664894496,,,,-8.94375,-21.65625,-21.956251,,,,,,,,,,,,,,,
1736664894515,,,,-9.4125,-21.6,-21.900002,,,,,,,,,,,,,,,
1736664894535,,,,-9.356251,-21.243752,-21.900002,,,,,,,,,,,,,,,
1736664894556,,,,-9.4125,-21.35625,-21.956251,,,,,,,,,,,,,,,
1736664894575,,,,-9.65625,-21.487501,-22.0125,,,,,,,,,,,,,,,
1736664894595,,,,-9.356251,-21.300001,-22.2,,,,,,,,,,,,,,,
1736664894616,,,,-9.3,-21.65625,-22.44375,,,,,,,,,,,,,,,
1736664894635,,,,-9.356251,-21.487501,-22.25625,,,,,,,,,,,,,,,
1736664894656,,,,-9.65625,-21.35625,-22.143751,,,,,,,,,,,,,,,
1736664894676,,,,-9.95625,-21.7875,-22.2,,,,,,,,,,,,,,,
1736664894695,,,,-9.84375,-21.84375,-22.0125,,,,,,,,,,,,,,,
1736664894715,,,,-9.900001,-21.956251,-22.5,,,,,,,,,,,,,,,
1736664894736,,,,-9.900001,-21.6,-22.5,,,,,,,,,,,,,,,
1736664894755,,,,-9.900001,-21.487501,-22.5,,,,,,,,,,,,,,,
1736664894775,,,,-9.95625,-21.056252,-22.44375,,,,,,,,,,,,,,,
1736664894796,,,,-9.900001,-21.056252,-22.2,,,,,,,,,,,,,,,
1736664894815,,,,-9.900001,-21.7875,-22.143751,,,,,,,,,,,,,,,
1736664894835,,,,-9.84375,-21.900002,-22.143751,,,,,,,,,,,,,,,
1736664894855,,,,-10.44375,-22.2,-22.44375,,,,,,,,,,,,,,,
1736664894875,,,,-10.5,-22.087502,-22.5,,,,,,,,,,,,,,,
1736664894895,,,,-10.6125,-21.956251,-22.800001,,,,,,,,,,,,,,,
1736664894915,,,,-11.043751,-21.956251,-22.5,,,,,,,,,,,,,,,
1736664894936,,,,-11.212501,-21.84375,-22.2,,,,,,,,,,,,,,,
1736664894956,,,,-11.75625,-22.2,-21.956251,,,,,,,,,,,,,,,
1736664893823,,,,,,,-0.764242,3.88112,8.973482,,,,,,,,,,,,
1736664893834,,,,,,,-0.765513,3.906592,8.962308,,,,,,,,,,,,
1736664893844,,,,,,,-0.751957,3.900691,8.966025,,,,,,,,,,,,
1736664893853,,,,,,,-0.714172,3.919572,8.96088,,,,,,,,,,,,
1736664893863,,,,,,,-0.68527,3.922955,8.961658,,,,,,,,,,,,
1736664893874,,,,,,,-0.63097,3.926312,8.964174,,,,,,,,,,,,
1736664893884,,,,,,,-0.594817,3.933152,8.963647,,,,,,,,,,,,
1736664893895,,,,,,,-0.559431,3.910461,8.975843,,,,,,,,,,,,
1736664893905,,,,,,,-0.534702,3.915578,8.975119,,,,,,,,,,,,
1736664893914,,,,,,,-0.507212,3.887315,8.98899,,,,,,,,,,,,
1736664893924,,,,,,,-0.489054,3.878416,8.99384,,,,,,,,,,,,
1736664893935,,,,,,,-0.458459,3.864694,9.001357,,,,,,,,,,,,
1736664893944,,,,,,,-0.438267,3.85245,9.007609,,,,,,,,,,,,
1736664893954,,,,,,,-0.419036,3.847548,9.010619,,,,,,,,,,,,
1736664893965,,,,,,,-0.395247,3.837293,9.016062,,,,,,,,,,,,
1736664893974,,,,,,,-0.383758,3.829155,9.020018,,,,,,,,,,,,
1736664893985,,,,,,,-0.365371,3.813401,9.027451,,,,,,,,,,,,
1736664893994,,,,,,,-0.360081,3.789262,9.037823,,,,,,,,,,,,
1736664894005,,,,,,,-0.348349,3.773033,9.045068,,,,,,,,,,,,
1736664894014,,,,,,,-0.313257,3.759333,9.052053,,,,,,,,,,,,
1736664894024,,,,,,,-0.293941,3.742087,9.059845,,,,,,,,,,,,
1736664894034,,,,,,,-0.268246,3.736424,9.062981,,,,,,,,,,,,
1736664894044,,,,,,,-0.244914,3.735519,9.064013,,,,,,,,,,,,
1736664894055,,,,,,,-0.232808,3.755555,9.056046,,,,,,,,,,,,
1736664894064,,,,,,,-0.229764,3.770213,9.050034,,,,,,,,,,,,
1736664894075,,,,,,,-0.237953,3.786934,9.042838,,,,,,,,,,,,
1736664894084,,,,,,,-0.243675,3.808411,9.033664,,,,,,,,,,,,
1736664894095,,,,,,,-0.260881,3.817551,9.029325,,,,,,,,,,,,
1736664894105,,,,,,,-0.268463,3.82507,9.025918,,,,,,,,,,,,
1736664894116,,,,,,,-0.272932,3.831629,9.022999,,,,,,,,,,,,
1736664894125,,,,,,,-0.275014,3.834208,9.02184,,,,,,,,,,,,
1736664894135,,,,,,,-0.274988,3.842099,9.018484,,,,,,,,,,,,
1736664894145,,,,,,,-0.273793,3.840045,9.019396,,,,,,,,,,,,
1736664894156,,,,,,,-0.277674,3.849584,9.01521,,,,,,,,,,,,
1736664894166,,,,,,,-0.279418,3.859959,9.010716,,,,,,,,,,,,
1736664894175,,,,,,,-0.289921,3.86489,9.008271,,,,,,,,,,,,
1736664894185,,,,,,,-0.302756,3.87039,9.005488,,,,,,,,,,,,
1736664894196,,,,,,,-0.316783,3.871579,9.004496,,,,,,,,,,,,
1736664894205,,,,,,,-0.329528,3.876212,9.002045,,,,,,,,,,,,
1736664894215,,,,,,,-0.340244,3.901392,8.990764,,,,,,,,,,,,
1736664894225,,,,,,,-0.353099,3.916937,8.983504,,,,,,,,,,,,
1736664894235,,,,,,,-0.366429,3.934728,8.975194,,,,,,,,,,,,
1736664894245,,,,,,,-0.376314,3.951879,8.967247,,,,,,,,,,,,
1736664894255,,,,,,,-0.380294,3.946439,8.969474,,,,,,,,,,,,
1736664894266,,,,,,,-0.384126,3.949134,8.968122,,,,,,,,,,,,
1736664894275,,,,,,,-0.380858,3.934926,8.974504,,,,,,,,,,,,
1736664894285,,,,,,,-0.379911,3.919376,8.981346,,,,,,,,,,,,
1736664894295,,,,,,,-0.374632,3.907279,8.986837,,,,,,,,,,,,
1736664894305,,,,,,,-0.37076,3.896917,8.991497,,,,,,,,,,,,
1736664894317,,,,,,,-0.355269,3.89774,8.991764,,,,,,,,,,,,
1736664894326,,,,,,,-0.348923,3.895544,8.992966,,,,,,,,,,,,
1736664894337,,,,,,,-0.349977,3.909911,8.986691,,,,,,,,,,,,
1736664894346,,,,,,,-0.347736,3.921641,8.981667,,,,,,,,,,,,
1736664894357,,,,,,,-0.359456,3.927963,8.978443,,,,,,,,,,,,
1736664894366,,,,,,,-0.36583,3.935073,8.975072,,,,,,,,,,,,
1736664894376,,,,,,,-0.361494,3.931591,8.97677,,,,,,,,,,,,
1736664894386,,,,,,,-0.36342,3.930543,8.977152,,,,,,,,,,,,
1736664894396,,,,,,,-0.348987,3.930936,8.977551,,,,,,,,,,,,
1736664894407,,,,,,,-0.336211,3.926634,8.979921,,,,,,,,,,,,
1736664894416,,,,,,,-0.338149,3.944759,8.971903,,,,,,,,,,,,
1736664894426,,,,,,,-0.330632,3.952639,8.968712,,,,,,,,,,,,
1736664894436,,,,,,,-0.346974,3.981127,8.955487,,,,,,,,,,,,
1736664894446,,,,,,,-0.357766,4.001639,8.945915,,,,,,,,,,,,
1736664894457,,,,,,,-0.364893,4.016002,8.939192,,,,,,,,,,,,
1736664894466,,,,,,,-0.375943,4.035554,8.929924,,,,,,,,,,,,
1736664894477,,,,,,,-0.363861,4.027288,8.934155,,,,,,,,,,,,
1736664894486,,,,,,,-0.358458,4.030124,8.933094,,,,,,,,,,,,
1736664894497,,,,,,,-0.339568,4.023531,8.936805,,,,,,,,,,,,
1736664894506,,,,,,,-0.324518,4.016525,8.940515,,,,,,,,,,,,
1736664894516,,,,,,,-0.307974,4.030566,8.934779,,,,,,,,,,,,
1736664894527,,,,,,,-0.291436,4.034559,8.933531,,,,,,,,,,,,
1736664894536,,,,,,,-0.286988,4.06292,8.920815,,,,,,,,,,,,
1736664894548,,,,,,,-0.279552,4.081871,8.912395,,,,,,,,,,,,
1736664894557,,,,,,,-0.283025,4.093742,8.906841,,,,,,,,,,,,
1736664894567,,,,,,,-0.286607,4.109404,8.89951,,,,,,,,,,,,
1736664894578,,,,,,,-0.292694,4.09667,8.905181,,,,,,,,,,,,
1736664894587,,,,,,,-0.297316,4.096021,8.905327,,,,,,,,,,,,
1736664894597,,,,,,,-0.290906,4.087979,8.90923,,,,,,,,,,,,
1736664894608,,,,,,,-0.284497,4.076634,8.914635,,,,,,,,,,,,
1736664894617,,,,,,,-0.269181,4.109363,8.900072,,,,,,,,,,,,
1736664894627,,,,,,,-0.259143,4.118689,8.89606,,,,,,,,,,,,
1736664894637,,,,,,,-0.274303,4.160552,8.876107,,,,,,,,,,,,
1736664894648,,,,,,,-0.283109,4.197972,8.858195,,,,,,,,,,,,
1736664894658,,,,,,,-0.316125,4.235867,8.839022,,,,,,,,,,,,
1736664894667,,,,,,,-0.341769,4.267406,8.822884,,,,,,,,,,,,
1736664894677,,,,,,,-0.368626,4.293842,8.808964,,,,,,,,,,,,
1736664894687,,,,,,,-0.390108,4.315873,8.797262,,,,,,,,,,,,
1736664894697,,,,,,,-0.407884,4.336176,8.786463,,,,,,,,,,,,
1736664894707,,,,,,,-0.418175,4.350873,8.77871,,,,,,,,,,,,
1736664894717,,,,,,,-0.423734,4.364114,8.771866,,,,,,,,,,,,
1736664894728,,,,,,,-0.435431,4.374179,8.766278,,,,,,,,,,,,
1736664894737,,,,,,,-0.448737,4.398351,8.753502,,,,,,,,,,,,
1736664894747,,,,,,,-0.462353,4.409316,8.747273,,,,,,,,,,,,
1736664894757,,,,,,,-0.476929,4.414655,8.743795,,,,,,,,,,,,
1736664894768,,,,,,,-0.485862,4.425839,8.737646,,,,,,,,,,,,
1736664894778,,,,,,,-0.512013,4.397187,8.750607,,,,,,,,,,,,
1736664894789,,,,,,,-0.522304,4.389982,8.753613,,,,,,,,,,,,
1736664894799,,,,,,,-0.542737,4.374,8.760367,,,,,,,,,,,,
1736664894808,,,,,,,-0.555264,4.357013,8.768047,,,,,,,,,,,,
1736664894818,,,,,,,-0.56836,4.369442,8.76102,,,,,,,,,,,,
1736664894828,,,,,,,-0.575541,4.373327,8.758614,,,,,,,,,,,,
1736664894838,,,,,,,-0.59491,4.412195,8.737803,,,,,,,,,,,,
1736664894848,,,,,,,-0.607325,4.440071,8.722815,,,,,,,,,,,,
1736664894858,,,,,,,-0.634852,4.479766,8.70053,,,,,,,,,,,,
1736664894869,,,,,,,-0.660977,4.50194,8.687127,,,,,,,,,,,,
1736664894878,,,,,,,-0.682086,4.538051,8.666681,,,,,,,,,,,,
1736664894888,,,,,,,-0.698817,4.575765,8.645494,,,,,,,,,,,,
1736664894898,,,,,,,-0.716687,4.574905,8.644485,,,,,,,,,,,,
1736664894909,,,,,,,-0.728249,4.575507,8.643203,,,,,,,,,,,,
1736664894919,,,,,,,-0.72625,4.605966,8.627182,,,,,,,,,,,,
1736664894928,,,,,,,-0.72495,4.61007,8.6251,,,,,,,,,,,,
1736664894938,,,,,,,-0.73565,4.646942,8.604387,,,,,,,,,,,,
1736664894948,,,,,,,-0.726605,4.666133,8.594773,,,,,,,,,,,,
1736664894959,,,,,,,-0.741494,4.683655,8.583974,,,,,,,,,,,,
1736664893823,,,,,,,,,,0.3400375,0.1247125,0.121,,,,,,,,,
1736664893833,,,,,,,,,,0.1665125,-0.017875,0.0902,,,,,,,,,
1736664893843,,,,,,,,,,0.00165,-0.19139999,0.0837375,,,,,,,,,
1736664893854,,,,,,,,,,-0.1324125,-0.3223,0.1018875,,,,,,,,,
1736664893864,,,,,,,,,,-0.2239875,-0.346775,0.1199,,,,,,,,,
1736664893875,,,,,,,,,,-0.2633125,-0.319,0.1315875,,,,,,,,,
1736664893884,,,,,,,,,,-0.252725,-0.2424125,0.1412125,,,,,,,,,
1736664893894,,,,,,,,,,-0.203775,-0.1370875,0.1529,,,,,,,,,
1736664893904,,,,,,,,,,-0.122925,-0.0583,0.1667875,,,,,,,,,
1736664893914,,,,,,,,,,-0.0270875,-0.0072875,0.1827375,,,,,,,,,
1736664893924,,,,,,,,,,0.0611875,0.02365,0.1827375,,,,,,,,,
1736664893934,,,,,,,,,,0.1260875,0.0587125,0.16885,,,,,,,,,
1736664893945,,,,,,,,,,0.1516625,0.0820875,0.1508375,,,,,,,,,
1736664893954,,,,,,,,,,0.139975,0.0746625,0.1315875,,,,,,,,,
1736664893964,,,,,,,,,,0.09845,0.048125,0.1082125,,,,,,,,,
1736664893974,,,,,,,,,,0.034649998,0.012925,0.0859375,,,,,,,,,
1736664893984,,,,,,,,,,-0.0281875,-0.0210375,0.0763125,,,,,,,,,
1736664893995,,,,,,,,,,-0.06545,-0.0647625,0.079475,,,,,,,,,
1736664894005,,,,,,,,,,-0.0771375,-0.1115125,0.079475,,,,,,,,,
1736664894014,,,,,,,,,,-0.0760375,-0.1700875,0.0752125,,,,,,,,,
1736664894024,,,,,,,,,,-0.073975,-0.1934625,0.0603625,,,,,,,,,
1736664894034,,,,,,,,,,-0.0622875,-0.1584,0.041249998,,,,,,,,,
1736664894045,,,,,,,,,,-0.021724999,-0.148775,0.029424999,,,,,,,,,
1736664894054,,,,,,,,,,0.0281875,-0.098725,0.0358875,,,,,,,,,
1736664894065,,,,,,,,,,0.0771375,0.0023375,0.0572,,,,,,,,,
1736664894074,,,,,,,,,,0.121825,0.062975,0.07315,,,,,,,,,
1736664894085,,,,,,,,,,0.14739999,0.100237496,0.0848375,,,,,,,,,
1736664894096,,,,,,,,,,0.1485,0.0928125,0.088,,,,,,,,,
1736664894105,,,,,,,,,,0.13255,0.0416625,0.088,,,,,,,,,
1736664894115,,,,,,,,,,0.1049125,-0.0072875,0.0837375,,,,,,,,,
1736664894126,,,,,,,,,,0.072875,-0.0562375,0.079475,,,,,,,,,
1736664894136,,,,,,,,,,0.042075,-0.082775,0.07205,,,,,,,,,
1736664894145,,,,,,,,,,0.0111375,-0.091299996,0.07095,,,,,,,,,
1736664894155,,,,,,,,,,-0.0154,-0.0796125,0.0763125,,,,,,,,,
1736664894165,,,,,,,,,,-0.03025,-0.0540375,0.081675,,,,,,,,,
1736664894175,,,,,,,,,,-0.023924999,-0.0306625,0.0944625,,,,,,,,,
1736664894186,,,,,,,,,,-5.5E-4,-0.001925,0.111375,,,,,,,,,
1736664894196,,,,,,,,,,0.0356125,0.02475,0.1167375,,,,,,,,,
1736664894205,,,,,,,,,,0.0782375,0.0512875,0.1230625,,,,,,,,,
1736664894216,,,,,,,,,,0.108075,0.0746625,0.1348875,,,,,,,,,
1736664894225,,,,,,,,,,0.113299996,0.0939125,0.154,,,,,,,,,
1736664894236,,,,,,,,,,0.09735,0.098175,0.17847499,,,,,,,,,
1736664894245,,,,,,,,,,0.072875,0.08635,0.20185,,,,,,,,,
1736664894255,,,,,,,,,,0.0463375,0.0757625,0.21779999,,,,,,,,,
1736664894265,,,,,,,,,,0.023924999,0.0576125,0.21779999,,,,,,,,,
1736664894276,,,,,,,,,,0.00275,0.048125,0.212575,,,,,,,,,
1736664894285,,,,,,,,,,-0.0122375,0.049225,0.2050125,,,,,,,,,
1736664894295,,,,,,,,,,-0.0111375,0.0438625,0.20075,,,,,,,,,
1736664894305,,,,,,,,,,0.007975,0.0279125,0.20075,,,,,,,,,
1736664894317,,,,,,,,,,0.0389125,0.031075,0.20405,,,,,,,,,
1736664894326,,,,,,,,,,0.0708125,0.0587125,0.2083125,,,,,,,,,
1736664894336,,,,,,,,,,0.09735,0.097075,0.21779999,,,,,,,,,
1736664894347,,,,,,,,,,0.1049125,0.1395625,0.2316875,,,,,,,,,
1736664894356,,,,,,,,,,0.09845,0.160875,0.245575,,,,,,,,,
1736664894366,,,,,,,,,,0.0845625,0.1417625,0.2572625,,,,,,,,,
1736664894376,,,,,,,,,,0.0686125,0.113025,0.260425,,,,,,,,,
1736664894386,,,,,,,,,,0.056925,0.0991375,0.2508,,,,,,,,,
1736664894396,,,,,,,,,,0.0600875,0.0831875,0.23595,,,,,,,,,
1736664894406,,,,,,,,,,0.072875,0.0661375,0.2242625,,,,,,,,,
1736664894417,,,,,,,,,,0.0836,0.0661375,0.21779999,,,,,,,,,
1736664894426,,,,,,,,,,0.0814,0.08635,0.227425,,,,,,,,,
1736664894436,,,,,,,,,,0.073975,0.1013375,0.253,,,,,,,,,
1736664894446,,,,,,,,,,0.06435,0.1150875,0.2891625,,,,,,,,,
1736664894456,,,,,,,,,,0.0484,0.128975,0.3199625,,,,,,,,,
1736664894467,,,,,,,,,,0.0356125,0.127875,0.341275,,,,,,,,,
1736664894477,,,,,,,,,,0.0356125,0.12265,0.3477375,,,,,,,,,
1736664894487,,,,,,,,,,0.0484,0.111925,0.340175,,,,,,,,,
1736664894496,,,,,,,,,,0.0697125,0.098175,0.3295875,,,,,,,,,
1736664894506,,,,,,,,,,0.092125,0.0928125,0.3179,,,,,,,,,
1736664894517,,,,,,,,,,0.106975,0.0831875,0.3114375,,,,,,,,,
1736664894527,,,,,,,,,,0.113299996,0.080025,0.309375,,,,,,,,,
1736664894537,,,,,,,,,,0.105875,0.094875,0.3199625,,,,,,,,,
1736664894547,,,,,,,,,,0.0836,0.12265,0.3370125,,,,,,,,,
1736664894557,,,,,,,,,,0.0611875,0.15235,0.352,,,,,,,,,
1736664894568,,,,,,,,,,0.040975,0.18425,0.3603875,,,,,,,,,
1736664894577,,,,,,,,,,0.0292875,0.193875,0.3603875,,,,,,,,,
1736664894587,,,,,,,,,,0.0303875,0.1716,0.3529625,,,,,,,,,
1736664894597,,,,,,,,,,0.039875,0.12045,0.3444375,,,,,,,,,
1736664894608,,,,,,,,,,0.056925,0.062975,0.3359125,,,,,,,,,
1736664894618,,,,,,,,,,0.073975,0.0385,0.3306875,,,,,,,,,
1736664894628,,,,,,,,,,0.0814,0.0831875,0.340175,,,,,,,,,
1736664894638,,,,,,,,,,0.0782375,0.1651375,0.3603875,,,,,,,,,
1736664894647,,,,,,,,,,0.073975,0.21835,0.3806,,,,,,,,,
1736664894658,,,,,,,,,,0.06655,0.2630375,0.4019125,,,,,,,,,
1736664894667,,,,,,,,,,0.0463375,0.28861248,0.4211625,,,,,,,,,
1736664894677,,,,,,,,,,0.0187,0.2726625,0.4296875,,,,,,,,,
1736664894687,,,,,,,,,,-0.006875,0.241725,0.43175,,,,,,,,,
1736664894698,,,,,,,,,,-0.0270875,0.2129875,0.4349125,,,,,,,,,
1736664894708,,,,,,,,,,-0.0430375,0.19607499,0.4338125,,,,,,,,,
1736664894717,,,,,,,,,,-0.0611875,0.1725625,0.4360125,,,,,,,,,
1736664894728,,,,,,,,,,-0.0919875,0.1502875,0.4285875,,,,,,,,,
1736664894737,,,,,,,,,,-0.13035,0.18535,0.4136,,,,,,,,,
1736664894747,,,,,,,,,,-0.171875,0.212025,0.39985,,,,,,,,,
1736664894758,,,,,,,,,,-0.203775,0.210925,0.3848625,,,,,,,,,
1736664894769,,,,,,,,,,-0.2176625,0.18535,0.36685,,,,,,,,,
1736664894778,,,,,,,,,,-0.20693749,0.1428625,0.340175,,,,,,,,,
1736664894789,,,,,,,,,,-0.1793,0.080025,0.3114375,,,,,,,,,
1736664894799,,,,,,,,,,-0.138875,0.0023375,0.2902625,,,,,,,,,
1736664894808,,,,,,,,,,-0.0941875,-0.0583,0.2838,,,,,,,,,
1736664894818,,,,,,,,,,-0.0452375,-0.0966625,0.2838,,,,,,,,,
1736664894829,,,,,,,,,,5.5E-4,-0.1189375,0.2869625,,,,,,,,,
1736664894838,,,,,,,,,,0.027224999,-0.117975,0.2869625,,,,,,,,,
1736664894848,,,,,,,,,,0.03355,-0.10615,0.2849,,,,,,,,,
1736664894858,,,,,,,,,,0.0207625,-0.099825,0.2838,,,,,,,,,
1736664894868,,,,,,,,,,-0.0122375,-0.0859375,0.2902625,,,,,,,,,
1736664894878,,,,,,,,,,-0.0622875,-0.0477125,0.3029125,,,,,,,,,
1736664894888,,,,,,,,,,-0.111237496,-0.0295625,0.307175,,,,,,,,,
1736664894899,,,,,,,,,,-0.1463,-0.098725,0.2954875,,,,,,,,,
1736664894908,,,,,,,,,,-0.1782,-0.2030875,0.2743125,,,,,,,,,
1736664894918,,,,,,,,,,-0.2143625,-0.261525,0.2539625,,,,,,,,,
1736664894928,,,,,,,,,,-0.269775,-0.2902625,0.227425,,,,,,,,,
1736664894939,,,,,,,,,,-0.3378375,-0.3169375,0.20405,,,,,,,,,
1736664894949,,,,,,,,,,-0.4060375,-0.3553,0.1986875,,,,,,,,,
1736664894959,,,,,,,,,,-0.4709375,-0.4202,0.2168375,,,,,,,,,
1736664893833,,,,,,,,,,,,,-0.057052,-0.181904,-0.216228,,,,,,
1736664893843,,,,,,,,,,,,,0.087414,0.168774,-0.526413,,,,,,
1736664893854,,,,,,,,,,,,,-0.055719,0.135527,-0.394372,,,,,,
1736664893864,,,,,,,,,,,,,0.250578,0.206367,-0.323321,,,,,,
1736664893874,,,,,,,,,,,,,0.122055,0.18625,-0.447946,,,,,,
1736664893885,,,,,,,,,,,,,0.19604,-0.024103,0.12721,,,,,,
1736664893894,,,,,,,,,,,,,0.155865,0.135061,-0.162723,,,,,,
1736664893904,,,,,,,,,,,,,0.224514,-0.236381,0.343195,,,,,,
1736664893915,,,,,,,,,,,,,0.146743,-0.097981,0.283833,,,,,,
1736664893924,,,,,,,,,,,,,0.344071,-0.309357,0.130537,,,,,,
1736664893935,,,,,,,,,,,,,0.253619,-0.281269,0.221185,,,,,,
1736664893945,,,,,,,,,,,,,0.247793,-0.271419,-0.048438,,,,,,
1736664893954,,,,,,,,,,,,,0.281236,-0.247362,0.063477,,,,,,
1736664893964,,,,,,,,,,,,,0.11379,-0.186827,-0.064073,,,,,,
1736664893974,,,,,,,,,,,,,0.164552,-0.250518,-0.156618,,,,,,
1736664893985,,,,,,,,,,,,,-0.047771,-0.150964,0.252554,,,,,,
1736664893994,,,,,,,,,,,,,-0.019541,-0.069363,0.148805,,,,,,
1736664894004,,,,,,,,,,,,,0.193789,-0.012431,0.215784,,,,,,
1736664894014,,,,,,,,,,,,,-0.013691,-0.025068,0.302175,,,,,,
1736664894025,,,,,,,,,,,,,0.11065,0.071189,0.181852,,,,,,
1736664894034,,,,,,,,,,,,,0.101715,0.014601,0.006327,,,,,,
1736664894044,,,,,,,,,,,,,0.018526,0.240568,0.002901,,,,,,
1736664894054,,,,,,,,,,,,,0.008814,0.155886,0.123398,,,,,,
1736664894064,,,,,,,,,,,,,-0.066058,0.124468,0.112651,,,,,,
1736664894074,,,,,,,,,,,,,-0.002801,0.158028,0.112665,,,,,,
1736664894085,,,,,,,,,,,,,-0.145524,-0.021471,0.093107,,,,,,
1736664894095,,,,,,,,,,,,,-0.087615,-0.013852,0.118995,,,,,,
1736664894105,,,,,,,,,,,,,-0.094399,-0.066862,-0.059563,,,,,,
1736664894115,,,,,,,,,,,,,-0.118662,-0.054267,0.005606,,,,,,
1736664894125,,,,,,,,,,,,,-0.109397,-0.052057,-0.249423,,,,,,
1736664894135,,,,,,,,,,,,,-0.107029,-0.107834,-0.152689,,,,,,
1736664894145,,,,,,,,,,,,,-0.153715,0.035483,-0.261344,,,,,,
1736664894155,,,,,,,,,,,,,-0.104343,0.049886,-0.293073,,,,,,
1736664894166,,,,,,,,,,,,,-0.200765,0.104156,0.015495,,,,,,
1736664894176,,,,,,,,,,,,,-0.197444,0.020214,-0.125717,,,,,,
1736664894186,,,,,,,,,,,,,-0.194186,-0.002045,0.066214,,,,,,
1736664894195,,,,,,,,,,,,,-0.153822,-0.008022,0.067207,,,,,,
1736664894205,,,,,,,,,,,,,-0.112346,0.212407,0.002617,,,,,,
1736664894215,,,,,,,,,,,,,-0.127966,0.105822,0.083333,,,,,,
1736664894225,,,,,,,,,,,,,-0.136661,0.111824,-0.017149,,,,,,
1736664894235,,,,,,,,,,,,,-0.120936,0.137131,-0.006445,,,,,,
1736664894246,,,,,,,,,,,,,-0.067954,-0.117053,0.061358,,,,,,
1736664894255,,,,,,,,,,,,,-0.087917,0.022465,0.056737,,,,,,
1736664894266,,,,,,,,,,,,,-0.007468,-0.19332,0.041328,,,,,,
1736664894275,,,,,,,,,,,,,-0.02989,-0.191084,0.044525,,,,,,
1736664894285,,,,,,,,,,,,,0.009865,-0.074973,0.212465,,,,,,
1736664894296,,,,,,,,,,,,,-0.019356,-0.115551,0.113596,,,,,,
1736664894305,,,,,,,,,,,,,0.118034,0.002553,0.120908,,,,,,
1736664894316,,,,,,,,,,,,,0.035504,-0.041366,0.20923,,,,,,
1736664894327,,,,,,,,,,,,,-0.006756,0.023081,-0.100834,,,,,,
1736664894336,,,,,,,,,,,,,0.066125,0.025473,0.013183,,,,,,
1736664894346,,,,,,,,,,,,,-0.079771,-0.048507,-0.005735,,,,,,
1736664894356,,,,,,,,,,,,,-0.03932,-0.062011,-0.098283,,,,,,
1736664894366,,,,,,,,,,,,,0.048458,-0.109824,0.089447,,,,,,
1736664894376,,,,,,,,,,,,,-0.034888,-0.070428,0.063806,,,,,,
1736664894387,,,,,,,,,,,,,0.144214,-0.007129,0.178351,,,,,,
1736664894396,,,,,,,,,,,,,0.113021,-0.088928,0.175558,,,,,,
1736664894406,,,,,,,,,,,,,-0.052988,0.10931,-0.066241,,,,,,
1736664894416,,,,,,,,,,,,,0.071058,0.033723,0.085433,,,,,,
1736664894426,,,,,,,,,,,,,-0.202225,0.241328,-0.124465,,,,,,
1736664894436,,,,,,,,,,,,,-0.140391,0.155378,-0.087298,,,,,,
1736664894446,,,,,,,,,,,,,-0.100868,0.122894,-0.008292,,,,,,
1736664894456,,,,,,,,,,,,,-0.155992,0.170783,-0.09734,,,,,,
1736664894466,,,,,,,,,,,,,0.101668,-0.090591,0.206424,,,,,,
1736664894476,,,,,,,,,,,,,0.015364,0.020628,0.132759,,,,,,
1736664894487,,,,,,,,,,,,,0.16559,-0.104316,0.217619,,,,,,
1736664894496,,,,,,,,,,,,,0.120362,-0.128849,0.235458,,,,,,
1736664894506,,,,,,,,,,,,,0.134043,0.033785,-0.029229,,,,,,
1736664894517,,,,,,,,,,,,,0.129471,-0.044901,0.127346,,,,,,
1736664894526,,,,,,,,,,,,,0.007584,0.08758,-0.350262,,,,,,
1736664894536,,,,,,,,,,,,,0.058205,0.047247,-0.215438,,,,,,
1736664894547,,,,,,,,,,,,,-0.040212,-0.062685,-0.300395,,,,,,
1736664894557,,,,,,,,,,,,,-0.012797,-0.0147,-0.359487,,,,,,
1736664894568,,,,,,,,,,,,,-0.04034,-0.209933,0.045294,,,,,,
1736664894577,,,,,,,,,,,,,-0.036648,-0.144524,-0.183044,,,,,,
1736664894588,,,,,,,,,,,,,0.030224,-0.062469,0.262147,,,,,,
1736664894597,,,,,,,,,,,,,-0.02407,-0.145411,0.227118,,,,,,
1736664894607,,,,,,,,,,,,,0.062896,0.246625,-0.230806,,,,,,
1736664894617,,,,,,,,,,,,,0.038004,0.053479,0.080647,,,,,,
1736664894628,,,,,,,,,,,,,-0.163577,0.216542,-0.537855,,,,,,
1736664894637,,,,,,,,,,,,,-0.052645,0.20341,-0.446073,,,,,,
1736664894647,,,,,,,,,,,,,-0.292844,0.206693,-0.473652,,,,,,
1736664894657,,,,,,,,,,,,,-0.192788,0.140067,-0.468845,,,,,,
1736664894667,,,,,,,,,,,,,-0.238973,0.199511,-0.280318,,,,,,
1736664894677,,,,,,,,,,,,,-0.204933,0.129977,-0.350198,,,,,,
1736664894687,,,,,,,,,,,,,-0.205,0.213295,-0.190051,,,,,,
1736664894698,,,,,,,,,,,,,-0.136944,0.171443,-0.148125,,,,,,
1736664894707,,,,,,,,,,,,,-0.095527,0.065763,-0.35107,,,,,,
1736664894717,,,,,,,,,,,,,-0.192922,0.12914,-0.222117,,,,,,
1736664894727,,,,,,,,,,,,,-0.157283,0.219635,-0.520604,,,,,,
1736664894738,,,,,,,,,,,,,-0.120034,0.0542,-0.570079,,,,,,
1736664894747,,,,,,,,,,,,,-0.16388,0.325761,0.005989,,,,,,
1736664894757,,,,,,,,,,,,,-0.101419,0.289296,-0.251509,,,,,,
1736664894769,,,,,,,,,,,,,-0.370223,0.074597,0.492079,,,,,,
1736664894778,,,,,,,,,,,,,-0.224357,0.25409,0.282786,,,,,,
1736664894788,,,,,,,,,,,,,-0.427158,0.160735,0.452169,,,,,,
1736664894798,,,,,,,,,,,,,-0.397148,0.119254,0.524427,,,,,,
1736664894808,,,,,,,,,,,,,-0.413353,0.25356,0.040284,,,,,,
1736664894819,,,,,,,,,,,,,-0.383497,0.183669,0.272374,,,,,,
1736664894828,,,,,,,,,,,,,-0.457722,0.227669,-0.553642,,,,,,
1736664894838,,,,,,,,,,,,,-0.392861,0.22711,-0.245516,,,,,,
1736664894848,,,,,,,,,,,,,-0.488189,0.065154,-0.876987,,,,,,
1736664894858,,,,,,,,,,,,,-0.470239,-0.046369,-0.708651,,,,,,
1736664894868,,,,,,,,,,,,,-0.372285,0.063142,-0.941859,,,,,,
1736664894879,,,,,,,,,,,,,-0.312868,0.120409,-0.969299,,,,,,
1736664894888,,,,,,,,,,,,,-0.399091,-0.130396,-0.557842,,,,,,
1736664894899,,,,,,,,,,,,,-0.407559,-0.129537,-0.666971,,,,,,
1736664894908,,,,,,,,,,,,,-0.31459,0.202667,-0.871598,,,,,,
1736664894918,,,,,,,,,,,,,-0.338139,0.026156,-0.666429,,,,,,
1736664894928,,,,,,,,,,,,,-0.511827,0.498515,-0.824764,,,,,,
1736664894938,,,,,,,,,,,,,-0.302401,0.262918,-0.897428,,,,,,
1736664894948,,,,,,,,,,,,,-0.730446,0.705824,-0.356282,,,,,,
1736664894959,,,,,,,,,,,,,-0.650912,0.582953,-0.577729,,,,,,
1736664893833,,,,,,,,,,,,,,,,0.142054,-0.166838,-0.848372,,,
1736664893843,,,,,,,,,,,,,,,,0.141835,-0.168633,-0.848236,,,
1736664893853,,,,,,,,,,,,,,,,0.140982,-0.169714,-0.848444,,,
1736664893864,,,,,,,,,,,,,,,,0.138769,-0.17112,-0.848431,,,
1736664893875,,,,,,,,,,,,,,,,0.137095,-0.172228,-0.848492,,,
1736664893884,,,,,,,,,,,,,,,,0.134973,-0.172638,-0.851737,,,
1736664893894,,,,,,,,,,,,,,,,0.133497,-0.173119,-0.851396,,,
1736664893905,,,,,,,,,,,,,,,,0.13154,-0.172755,-0.85465,,,
1736664893914,,,,,,,,,,,,,,,,0.130472,-0.173036,-0.857542,,,
1736664893925,,,,,,,,,,,,,,,,0.128691,-0.173476,-0.860042,,,
1736664893934,,,,,,,,,,,,,,,,0.127397,-0.173921,-0.862544,,,
1736664893944,,,,,,,,,,,,,,,,0.126483,-0.174781,-0.86458,,,
1736664893955,,,,,,,,,,,,,,,,0.125259,-0.175545,-0.866703,,,
1736664893965,,,,,,,,,,,,,,,,0.124634,-0.176322,-0.868636,,,
1736664893975,,,,,,,,,,,,,,,,0.123435,-0.176841,-0.870644,,,
1736664893984,,,,,,,,,,,,,,,,0.122498,-0.176683,-0.872774,,,
1736664893994,,,,,,,,,,,,,,,,0.121378,-0.176822,-0.874825,,,
1736664894004,,,,,,,,,,,,,,,,0.1193,-0.177392,-0.876946,,,
1736664894015,,,,,,,,,,,,,,,,0.117545,-0.177655,-0.878973,,,
1736664894024,,,,,,,,,,,,,,,,0.115507,-0.17854,-0.881048,,,
1736664894034,,,,,,,,,,,,,,,,0.113694,-0.179411,-0.883054,,,
1736664894045,,,,,,,,,,,,,,,,0.112677,-0.180995,-0.884823,,,
1736664894054,,,,,,,,,,,,,,,,0.111746,-0.182295,-0.886532,,,
1736664894064,,,,,,,,,,,,,,,,0.111517,-0.183389,-0.887986,,,
1736664894075,,,,,,,,,,,,,,,,0.111473,-0.184765,-0.889217,,,
1736664894084,,,,,,,,,,,,,,,,0.111834,-0.185454,-0.890472,,,
1736664894095,,,,,,,,,,,,,,,,0.111948,-0.186216,-0.891621,,,
1736664894106,,,,,,,,,,,,,,,,0.111889,-0.187041,-0.892879,,,
1736664894115,,,,,,,,,,,,,,,,0.111616,-0.18776,-0.894061,,,
1736664894125,,,,,,,,,,,,,,,,0.111252,-0.188744,-0.895254,,,
1736664894135,,,,,,,,,,,,,,,,0.110532,-0.189342,-0.896532,,,
1736664894146,,,,,,,,,,,,,,,,0.110216,-0.190316,-0.897694,,,
1736664894156,,,,,,,,,,,,,,,,0.109765,-0.191296,-0.898784,,,
1736664894165,,,,,,,,,,,,,,,,0.109567,-0.191803,-0.899846,,,
1736664894175,,,,,,,,,,,,,,,,0.109469,-0.192224,-0.900863,,,
1736664894185,,,,,,,,,,,,,,,,0.109325,-0.192392,-0.901728,,,
1736664894195,,,,,,,,,,,,,,,,0.109218,-0.19268,-0.902543,,,
1736664894206,,,,,,,,,,,,,,,,0.109581,-0.193934,-0.903044,,,
1736664894215,,,,,,,,,,,,,,,,0.109916,-0.194822,-0.90353,,,
1736664894225,,,,,,,,,,,,,,,,0.110503,-0.195889,-0.903938,,,
1736664894235,,,,,,,,,,,,,,,,0.111034,-0.196959,-0.904209,,,
1736664894246,,,,,,,,,,,,,,,,0.110826,-0.19717,-0.904633,,,
1736664894255,,,,,,,,,,,,,,,,0.110803,-0.197665,-0.905032,,,
1736664894266,,,,,,,,,,,,,,,,0.110043,-0.197524,-0.905569,,,
1736664894275,,,,,,,,,,,,,,,,0.109276,-0.197215,-0.906059,,,
1736664894286,,,,,,,,,,,,,,,,0.108422,-0.197039,-0.906626,,,
1736664894295,,,,,,,,,,,,,,,,0.107652,-0.196774,-0.907118,,,
1736664894305,,,,,,,,,,,,,,,,0.106524,-0.197127,-0.907499,,,
1736664894317,,,,,,,,,,,,,,,,0.105646,-0.197288,-0.907796,,,
1736664894326,,,,,,,,,,,,,,,,0.105453,-0.198065,-0.908021,,,
1736664894336,,,,,,,,,,,,,,,,0.105122,-0.19885,-0.908015,,,
1736664894346,,,,,,,,,,,,,,,,0.105465,-0.199254,-0.908075,,,
1736664894357,,,,,,,,,,,,,,,,0.105808,-0.199726,-0.907885,,,
1736664894367,,,,,,,,,,,,,,,,0.105475,-0.199842,-0.907899,,,
1736664894376,,,,,,,,,,,,,,,,0.1054,-0.200011,-0.907802,,,
1736664894386,,,,,,,,,,,,,,,,0.104606,-0.200382,-0.907709,,,
1736664894397,,,,,,,,,,,,,,,,0.103745,-0.200467,-0.907764,,,
1736664894407,,,,,,,,,,,,,,,,0.103986,-0.201398,-0.907622,,,
1736664894416,,,,,,,,,,,,,,,,0.103543,-0.202051,-0.907632,,,
1736664894427,,,,,,,,,,,,,,,,0.104707,-0.203284,-0.907414,,,
1736664894437,,,,,,,,,,,,,,,,0.105528,-0.204245,-0.907346,,,
1736664894447,,,,,,,,,,,,,,,,0.106091,-0.20499,-0.90712,,,
1736664894457,,,,,,,,,,,,,,,,0.107037,-0.205877,-0.906907,,,
1736664894467,,,,,,,,,,,,,,,,0.106322,-0.205801,-0.906889,,,
1736664894476,,,,,,,,,,,,,,,,0.106131,-0.20608,-0.906711,,,
1736664894486,,,,,,,,,,,,,,,,0.105104,-0.206088,-0.906707,,,
1736664894497,,,,,,,,,,,,,,,,0.104191,-0.206082,-0.906707,,,
1736664894506,,,,,,,,,,,,,,,,0.103693,-0.207011,-0.906492,,,
1736664894517,,,,,,,,,,,,,,,,0.102957,-0.207568,-0.906368,,,
1736664894526,,,,,,,,,,,,,,,,0.103286,-0.209115,-0.906077,,,
1736664894536,,,,,,,,,,,,,,,,0.103273,-0.210337,-0.905706,,,
1736664894547,,,,,,,,,,,,,,,,0.103618,-0.211105,-0.905436,,,
1736664894558,,,,,,,,,,,,,,,,0.10407,-0.211992,-0.905002,,,
1736664894567,,,,,,,,,,,,,,,,0.104093,-0.211541,-0.904847,,,
1736664894578,,,,,,,,,,,,,,,,0.104422,-0.211503,-0.904565,,,
1736664894587,,,,,,,,,,,,,,,,0.104183,-0.211234,-0.904391,,,
1736664894598,,,,,,,,,,,,,,,,0.103855,-0.210831,-0.90431,,,
1736664894607,,,,,,,,,,,,,,,,0.10394,-0.212467,-0.903854,,,
1736664894617,,,,,,,,,,,,,,,,0.103507,-0.213233,-0.903636,,,
1736664894627,,,,,,,,,,,,,,,,0.104843,-0.215117,-0.903084,,,
1736664894637,,,,,,,,,,,,,,,,0.106003,-0.216842,-0.902462,,,
1736664894648,,,,,,,,,,,,,,,,0.108342,-0.218254,-0.901788,,,
1736664894657,,,,,,,,,,,,,,,,0.110365,-0.219461,-0.900961,,,
1736664894667,,,,,,,,,,,,,,,,0.112555,-0.220423,-0.900219,,,
1736664894678,,,,,,,,,,,,,,,,0.11444,-0.221175,-0.89938,,,
1736664894687,,,,,,,,,,,,,,,,0.116125,-0.221903,-0.898594,,,
1736664894697,,,,,,,,,,,,,,,,0.117277,-0.222454,-0.897934,,,
1736664894707,,,,,,,,,,,,,,,,0.118226,-0.223005,-0.897207,,,
1736664894718,,,,,,,,,,,,,,,,0.119366,-0.223388,-0.896628,,,
1736664894727,,,,,,,,,,,,,,,,0.120684,-0.224441,-0.895922,,,
1736664894737,,,,,,,,,,,,,,,,0.121784,-0.224904,-0.895308,,,
1736664894747,,,,,,,,,,,,,,,,0.122886,-0.224975,-0.89482,,,
1736664894758,,,,,,,,,,,,,,,,0.12395,-0.225283,-0.894188,,,
1736664894769,,,,,,,,,,,,,,,,0.124792,-0.22359,-0.894159,,,
1736664894778,,,,,,,,,,,,,,,,0.125456,-0.222933,-0.893813,,,
1736664894788,,,,,,,,,,,,,,,,0.126339,-0.221758,-0.893786,,,
1736664894798,,,,,,,,,,,,,,,,0.126748,-0.220701,-0.893749,,,
1736664894808,,,,,,,,,,,,,,,,0.127743,-0.220918,-0.893489,,,
1736664894818,,,,,,,,,,,,,,,,0.128192,-0.220918,-0.893403,,,
1736664894828,,,,,,,,,,,,,,,,0.129942,-0.222397,-0.892856,,,
1736664894839,,,,,,,,,,,,,,,,0.131109,-0.223584,-0.892576,,,
1736664894849,,,,,,,,,,,,,,,,0.133297,-0.225166,-0.892027,,,
1736664894858,,,,,,,,,,,,,,,,0.135037,-0.226081,-0.891657,,,
1736664894868,,,,,,,,,,,,,,,,0.136887,-0.227679,-0.891141,,,
1736664894878,,,,,,,,,,,,,,,,0.138679,-0.229283,-0.890453,,,
1736664894888,,,,,,,,,,,,,,,,0.139909,-0.229162,-0.890165,,,
1736664894898,,,,,,,,,,,,,,,,0.140968,-0.229137,-0.889863,,,
1736664894908,,,,,,,,,,,,,,,,0.141913,-0.230569,-0.889413,,,
1736664894919,,,,,,,,,,,,,,,,0.142122,-0.231081,-0.889088,,,
1736664894928,,,,,,,,,,,,,,,,0.143658,-0.232811,-0.888647,,,
1736664894938,,,,,,,,,,,,,,,,0.143944,-0.233964,-0.888271,,,
1736664894948,,,,,,,,,,,,,,,,0.145358,-0.234787,-0.888009,,,
1736664894958,,,,,,,,,,,,,,,,0.146177,-0.235476,-0.887717,,,
1736664893898,,,,,,,,,,,,,,,,,,,234.0,,
1736664894024,,,,,,,,,,,,,,,,,,,223.0,,
1736664894224,,,,,,,,,,,,,,,,,,,204.0,,
1736664894430,,,,,,,,,,,,,,,,,,,186.0,,
1736664894632,,,,,,,,,,,,,,,,,,,151.0,,
1736664894832,,,,,,,,,,,,,,,,,,,102.0,,
1736664893898,,,,,,,,,,,,,,,,,,,,,5.0
1736664893899,,,,,,,,,,,,,,,,,,,,,5.0
1736664894968,-1.3560001,5.5030503,8.39595,,,,,,,,,,,,,,,,,,
1736664894978,-1.2790501,5.41905,8.464951,,,,,,,,,,,,,,,,,,
1736664894989,-1.3729501,5.34,8.602051,,,,,,,,,,,,,,,,,,
1736664894999,-1.2580501,5.247,8.805,,,,,,,,,,,,,,,,,,
1736664895009,-1.0999501,5.1610503,8.89395,,,,,,,,,,,,,,,,,,
1736664895019,-1.0380001,5.13705,8.99205,,,,,,,,,,,,,,,,,,
1736664895029,-1.00395,5.058,8.985001,,,,,,,,,,,,,,,,,,
1736664895039,-0.93495005,4.99095,9.031051,,,,,,,,,,,,,,,,,,
1736664895049,-0.83205,4.842,8.96805,,,,,,,,,,,,,,,,,,
1736664895060,-0.75705004,4.701,8.86995,,,,,,,,,,,,,,,,,,
1736664895069,-0.60405004,4.5430503,8.905951,,,,,,,,,,,,,,,,,,
1736664895080,-0.43695003,4.296,8.911051,,,,,,,,,,,,,,,,,,
1736664895089,-0.20700002,3.966,8.86305,,,,,,,,,,,,,,,,,,
1736664895099,0.076950006,3.7030501,8.793,,,,,,,,,,,,,,,,,,
1736664895109,0.23805001,3.5130002,8.776951,,,,,,,,,,,,,,,,,,
1736664895119,0.39105,3.35505,8.868,,,,,,,,,,,,,,,,,,
1736664895130,0.51795,3.3079503,9.0070505,,,,,,,,,,,,,,,,,,
1736664895140,0.61605,3.3000002,9.081,,,,,,,,,,,,,,,,,,
1736664895149,0.669,3.2740502,9.17205,,,,,,,,,,,,,,,,,,
1736664895159,0.75195,3.28605,9.241051,,,,,,,,,,,,,,,,,,
1736664895170,0.93195003,3.3600001,9.217051,,,,,,,,,,,,,,,,,,
1736664895179,1.15005,3.3790503,9.045,,,,,,,,,,,,,,,,,,
1736664895189,1.33905,3.3030002,8.820001,,,,,,,,,,,,,,,,,,
1736664895199,1.5520501,3.2209501,8.51595,,,,,,,,,,,,,,,,,,
1736664895210,1.746,3.2209501,8.21205,,,,,,,,,,,,,,,,,,
1736664895220,1.7910001,3.3100502,8.145,,,,,,,,,,,,,,,,,,
1736664895230,1.7119501,3.48495,8.38395,,,,,,,,,,,,,,,,,,
1736664895241,1.554,3.66405,8.776951,,,,,,,,,,,,,,,,,,
1736664895251,1.4110501,3.765,9.24405,,,,,,,,,,,,,,,,,,
1736664895260,1.248,3.8700001,9.675,,,,,,,,,,,,,,,,,,
1736664895270,1.128,3.8370001,10.017,,,,,,,,,,,,,,,,,,
1736664895280,1.179,3.7069502,10.2300005,,,,,,,,,,,,,,,,,,
1736664895290,1.3770001,3.6450002,10.23705,,,,,,,,,,,,,,,,,,
1736664895300,1.71,3.5850003,10.20405,,,,,,,,,,,,,,,,,,
1736664895310,1.9660501,3.4699502,10.11495,,,,,,,,,,,,,,,,,,
1736664895321,2.15295,3.32205,9.98595,,,,,,,,,,,,,,,,,,
1736664895331,2.19405,3.25005,9.79395,,,,,,,,,,,,,,,,,,
1736664895340,2.151,3.1969502,9.579,,,,,,,,,,,,,,,,,,
1736664895351,2.0740502,3.14505,9.427951,,,,,,,,,,,,,,,,,,
1736664895360,1.9300501,3.10905,9.394051,,,,,,,,,,,,,,,,,,
1736664895370,1.7770501,3.1060503,9.3490505,,,,,,,,,,,,,,,,,,
1736664895380,1.58595,2.9989502,9.21195,,,,,,,,,,,,,,,,,,
1736664895391,1.4470501,2.8290002,9.106951,,,,,,,,,,,,,,,,,,
1736664895400,1.404,2.673,9.10995,,,,,,,,,,,,,,,,,,
1736664895411,1.4629501,2.592,9.34395,,,,,,,,,,,,,,,,,,
1736664895420,1.57605,2.6179502,9.543,,,,,,,,,,,,,,,,,,
1736664895430,1.7010001,2.673,9.74895,,,,,,,,,,,,,,,,,,
1736664895441,1.7890501,2.778,10.012051,,,,,,,,,,,,,,,,,,
1736664895451,1.794,2.8620002,10.134001,,,,,,,,,,,,,,,,,,
1736664895462,1.6789501,2.8980002,10.05795,,,,,,,,,,,,,,,,,,
1736664895471,1.6140001,2.9149501,9.859051,,,,,,,,,,,,,,,,,,
1736664895481,1.5979501,2.9269502,9.64305,,,,,,,,,,,,,,,,,,
1736664895491,1.6810501,2.93595,9.427951,,,,,,,,,,,,,,,,,,
1736664895501,1.866,2.9479501,9.21,,,,,,,,,,,,,,,,,,
1736664895512,2.088,2.9629502,8.99505,,,,,,,,,,,,,,,,,,
1736664895521,2.18895,2.9530501,8.6640005,,,,,,,,,,,,,,,,,,
1736664895531,2.2080002,2.9340003,8.38395,,,,,,,,,,,,,,,,,,
1736664895541,2.02095,2.97,8.18805,,,,,,,,,,,,,,,,,,
1736664895551,1.7149501,3.042,8.101951,,,,,,,,,,,,,,,,,,
1736664895561,1.4440501,3.1519501,8.169001,,,,,,,,,,,,,,,,,,
1736664895571,1.35105,3.2760003,8.39595,,,,,,,,,,,,,,,,,,
1736664895582,1.4080501,3.3049502,8.679001,,,,,,,,,,,,,,,,,,
1736664895591,1.5780001,3.2290502,8.913,,,,,,,,,,,,,,,,,,
1736664895601,1.7839501,3.147,9.02805,,,,,,,,,,,,,,,,,,
1736664895612,2.01705,3.11595,8.908051,,,,,,,,,,,,,,,,,,
1736664895621,2.1100502,3.0970502,8.65695,,,,,,,,,,,,,,,,,,
1736664895631,2.0329502,3.0919502,8.50605,,,,,,,,,,,,,,,,,,
1736664895642,1.8510001,3.11805,8.608951,,,,,,,,,,,,,,,,,,
1736664895651,1.641,3.18495,8.865001,,,,,,,,,,,,,,,,,,
1736664895662,1.542,3.2620502,9.11205,,,,,,,,,,,,,,,,,,
1736664895672,1.57395,3.2929502,9.391951,,,,,,,,,,,,,,,,,,
1736664895682,1.6480501,3.20895,9.60795,,,,,,,,,,,,,,,,,,
1736664895693,1.7890501,3.04395,9.658051,,,,,,,,,,,,,,,,,,
1736664895702,1.899,2.9320502,9.63105,,,,,,,,,,,,,,,,,,
1736664895713,1.9930501,2.901,9.61905,,,,,,,,,,,,,,,,,,
1736664895722,2.0310001,2.9629502,9.562051,,,,,,,,,,,,,,,,,,
1736664895732,1.91805,3.0370502,9.49695,,,,,,,,,,,,,,,,,,
1736664895742,1.7149501,3.1380002,9.450001,,,,,,,,,,,,,,,,,,
1736664895752,1.5520501,3.279,9.415951,,,,,,,,,,,,,,,,,,
1736664895762,1.4629501,3.3790503,9.354,,,,,,,,,,,,,,,,,,
1736664895772,1.47105,3.492,9.283951,,,,,,,,,,,,,,,,,,
1736664895782,1.57095,3.5520003,9.2029505,,,,,,,,,,,,,,,,,,
1736664895792,1.69305,3.51795,9.13095,,,,,,,,,,,,,,,,,,
1736664895802,1.83,3.45405,9.02805,,,,,,,,,,,,,,,,,,
1736664895812,1.9519501,3.3769503,8.88,,,,,,,,,,,,,,,,,,
1736664895822,2.09805,3.3000002,8.64,,,,,,,,,,,,,,,,,,
1736664895832,2.26305,3.31995,8.52495,,,,,,,,,,,,,,,,,,
1736664895842,2.32995,3.31695,8.43,,,,,,,,,,,,,,,,,,
1736664895852,2.29005,3.3289502,8.413051,,,,,,,,,,,,,,,,,,
1736664895863,2.2459502,3.3430502,8.66205,,,,,,,,,,,,,,,,,,
1736664895873,2.25795,3.3000002,9.00405,,,,,,,,,,,,,,,,,,
1736664895882,2.28195,3.3100502,9.32505,,,,,,,,,,,,,,,,,,
1736664895893,2.35695,3.3319502,9.552,,,,,,,,,,,,,,,,,,
1736664895904,2.388,3.2719502,9.58605,,,,,,,,,,,,,,,,,,
1736664895913,2.3730001,3.2260501,9.571951,,,,,,,,,,,,,,,,,,
1736664895924,2.2780502,3.2410502,9.523951,,,,,,,,,,,,,,,,,,
1736664895933,2.127,3.2359502,9.471001,,,,,,,,,,,,,,,,,,
1736664895943,1.9810501,3.21405,9.45195,,,,,,,,,,,,,,,,,,
1736664895953,1.8750001,3.2209501,9.44205,,,,,,,,,,,,,,,,,,
1736664895963,1.8370501,3.2689502,9.32505,,,,,,,,,,,,,,,,,,
1736664895974,1.8270001,3.35295,9.17205,,,,,,,,,,,,,,,,,,
1736664895983,1.9060501,3.5089502,9.00405,,,,,,,,,,,,,,,,,,
1736664895994,1.9110001,3.7050002,8.79105,,,,,,,,,,,,,,,,,,
1736664896003,1.9399501,3.8800502,8.467951,,,,,,,,,,,,,,,,,,
1736664896014,1.8970501,4.083,8.145,,,,,,,,,,,,,,,,,,
1736664896023,1.7910001,4.25805,7.9030504,,,,,,,,,,,,,,,,,,
1736664896033,1.69305,4.21005,7.8360004,,,,,,,,,,,,,,,,,,
1736664896044,1.6669501,4.21995,7.8360004,,,,,,,,,,,,,,,,,,
1736664896054,1.7220001,4.4809504,7.6270504,,,,,,,,,,,,,,,,,,
1736664896064,1.71,4.3510504,7.5600004,,,,,,,,,,,,,,,,,,
1736664896073,1.7479501,4.287,7.7299504,,,,,,,,,,,,,,,,,,
1736664896083,1.8559501,4.20795,7.90005,,,,,,,,,,,,,,,,,,
1736664896093,1.9470001,4.0669503,8.05095,,,,,,,,,,,,,,,,,,
1736664896103,1.96905,3.9180002,8.202001,,,,,,,,,,,,,,,,,,
1736664896114,1.8970501,3.7480502,8.302951,,,,,,,,,,,,,,,,,,
1736664896124,1.7890501,3.5370002,8.36505,,,,,,,,,,,,,,,,,,
1736664896134,1.6789501,3.3700502,8.50605,,,,,,,,,,,,,,,,,,
1736664896144,1.60695,3.31995,8.779051,,,,,,,,,,,,,,,,,,
1736664896154,1.5090001,3.2910001,9.16005,,,,,,,,,,,,,,,,,,
1736664896164,1.4749501,3.2980502,9.394051,,,,,,,,,,,,,,,,,,
1736664896174,1.43505,3.3600001,9.61905,,,,,,,,,,,,,,,,,,
1736664896184,1.45395,3.52095,9.813001,,,,,,,,,,,,,,,,,,
1736664896195,1.4989501,3.6480002,9.78705,,,,,,,,,,,,,,,,,,
1736664896204,1.5330001,3.8080502,9.80895,,,,,,,,,,,,,,,,,,
1736664896214,1.50405,3.86505,9.699,,,,,,,,,,,,,,,,,,
1736664896224,1.485,3.90105,9.48795,,,,,,,,,,,,,,,,,,
1736664896235,1.5160501,3.9520502,9.31095,,,,,,,,,,,,,,,,,,
1736664896244,1.6020001,4.02105,9.129001,,,,,,,,,,,,,,,,,,
1736664896254,1.7340001,4.06395,8.98005,,,,,,,,,,,,,,,,,,
1736664896264,1.8709501,4.0789504,8.841001,,,,,,,,,,,,,,,,,,
1736664896274,1.99995,3.9490502,8.70705,,,,,,,,,,,,,,,,,,
1736664896284,2.05995,3.8100002,8.578051,,,,,,,,,,,,,,,,,,
1736664896294,2.0959501,3.6379502,8.50905,,,,,,,,,,,,,,,,,,
1736664896305,2.08095,3.4699502,8.511001,,,,,,,,,,,,,,,,,,
1736664896314,2.0310001,3.348,8.53695,,,,,,,,,,,,,,,,,,
1736664896324,1.9900501,3.3030002,8.691,,,,,,,,,,,,,,,,,,
1736664896335,2.0050502,3.3079503,8.911051,,,,,,,,,,,,,,,,,,
1736664896346,1.99995,3.2910001,9.057,,,,,,,,,,,,,,,,,,
1736664896355,1.9350001,3.28605,9.189,,,,,,,,,,,,,,,,,,
1736664896365,1.84395,3.3079503,9.295951,,,,,,,,,,,,,,,,,,
1736664896375,1.72695,3.3079503,9.37005,,,,,,,,,,,,,,,,,,
1736664896385,1.626,3.3649502,9.411,,,,,,,,,,,,,,,,,,
1736664896395,1.557,3.4819503,9.387,,,,,,,,,,,,,,,,,,
1736664896405,1.5880501,3.6019502,9.24405,,,,,,,,,,,,,,,,,,
1736664896415,1.626,3.7770002,9.03495,,,,,,,,,,,,,,,,,,
1736664896425,1.6669501,3.9180002,8.81505,,,,,,,,,,,,,,,,,,
1736664896435,1.7200501,4.01895,8.67405,,,,,,,,,,,,,,,,,,
1736664896446,1.7149501,4.05705,8.63805,,,,,,,,,,,,,,,,,,
1736664896455,1.6789501,4.0090504,8.70195,,,,,,,,,,,,,,,,,,
1736664896465,1.7010001,3.9400501,8.75805,,,,,,,,,,,,,,,,,,
1736664896475,1.7479501,3.82695,8.77005,,,,,,,,,,,,,,,,,,
1736664896485,1.7989501,3.7069502,8.83695,,,,,,,,,,,,,,,,,,
1736664896496,1.83,3.58995,8.865001,,,,,,,,,,,,,,,,,,
1736664896505,1.8349501,3.5130002,8.84895,,,,,,,,,,,,,,,,,,
1736664896515,1.8390001,3.4680002,8.889001,,,,,,,,,,,,,,,,,,
1736664896525,1.8270001,3.4750502,8.89395,,,,,,,,,,,,,,,,,,
1736664896536,1.7770501,3.5160003,8.925,,,,,,,,,,,,,,,,,,
1736664896545,1.7389501,3.5400002,8.941951,,,,,,,,,,,,,,,,,,
1736664896555,1.6980001,3.5110502,8.917951,,,,,,,,,,,,,,,,,,
1736664896566,1.69305,3.5400002,9.042001,,,,,,,,,,,,,,,,,,
1736664896576,1.7029501,3.5659502,9.117001,,,,,,,,,,,,,,,,,,
1736664896586,1.7200501,3.5449502,9.12405,,,,,,,,,,,,,,,,,,
1736664896596,1.6690501,3.52305,9.0709505,,,,,,,,,,,,,,,,,,
1736664896607,1.6189501,3.5419502,8.956051,,,,,,,,,,,,,,,,,,
1736664896616,1.6020001,3.5970001,8.805,,,,,,,,,,,,,,,,,,
1736664896626,1.593,3.6520503,8.746051,,,,,,,,,,,,,,,,,,
1736664896637,1.5660001,3.7069502,8.776951,,,,,,,,,,,,,,,,,,
1736664896646,1.542,3.765,8.805,,,,,,,,,,,,,,,,,,
1736664896656,1.542,3.7510502,8.785951,,,,,,,,,,,,,,,,,,
1736664896666,1.5880501,3.73095,8.773951,,,,,,,,,,,,,,,,,,
1736664896677,1.6309501,3.6690001,8.79105,,,,,,,,,,,,,,,,,,
1736664896686,1.6690501,3.5779502,8.808001,,,,,,,,,,,,,,,,,,
1736664896696,1.6890001,3.5449502,8.82705,,,,,,,,,,,,,,,,,,
1736664896706,1.69605,3.5809503,8.84895,,,,,,,,,,,,,,,,,,
1736664896717,1.6789501,3.63105,8.85105,,,,,,,,,,,,,,,,,,
1736664896726,1.5660001,3.6520503,8.784,,,,,,,,,,,,,,,,,,
1736664896736,1.4779501,3.6450002,8.710051,,,,,,,,,,,,,,,,,,
1736664896746,1.4779501,3.6790502,8.71905,,,,,,,,,,,,,,,,,,
1736664896756,1.5450001,3.6499503,8.84595,,,,,,,,,,,,,,,,,,
1736664896766,1.6000501,3.59295,9.045,,,,,,,,,,,,,,,,,,
1736664896776,1.60695,3.5160003,9.18105,,,,,,,,,,,,,,,,,,
1736664896786,1.64505,3.5059502,9.241051,,,,,,,,,,,,,,,,,,
1736664896797,1.6669501,3.5350502,9.234,,,,,,,,,,,,,,,,,,
1736664896807,1.6480501,3.5689502,9.196051,,,,,,,,,,,,,,,,,,
1736664896817,1.6170001,3.5020502,9.12405,,,,,,,,,,,,,,,,,,
1736664896828,1.58595,3.4009502,9.13605,,,,,,,,,,,,,,,,,,
1736664896838,1.5880501,3.315,9.262951,,,,,,,,,,,,,,,,,,
1736664896847,1.5979501,3.2569501,9.34395,,,,,,,,,,,,,,,,,,
1736664896857,1.6500001,3.219,9.354,,,,,,,,,,,,,,,,,,
1736664896868,1.7410501,3.17805,9.3490505,,,,,,,,,,,,,,,,,,
1736664896877,1.8390001,3.1230001,9.282001,,,,,,,,,,,,,,,,,,
1736664896887,1.9519501,3.0589502,9.16905,,,,,,,,,,,,,,,,,,
1736664896898,2.043,3.0319502,9.082951,,,,,,,,,,,,,,,,,,
1736664896907,2.06205,3.0270002,9.009001,,,,,,,,,,,,,,,,,,
1736664896917,2.1049502,3.0349503,8.950951,,,,,,,,,,,,,,,,,,
1736664896927,2.12895,3.0370502,8.962951,,,,,,,,,,,,,,,,,,
1736664896938,2.112,3.04695,8.997001,,,,,,,,,,,,,,,,,,
1736664896947,1.9900501,3.0919502,9.064051,,,,,,,,,,,,,,,,,,
1736664896957,1.91805,3.2290502,9.184051,,,,,,,,,,,,,,,,,,
1736664896967,1.88505,3.3649502,9.174001,,,,,,,,,,,,,,,,,,
1736664896977,1.7989501,3.4819503,9.02805,,,,,,,,,,,,,,,,,,
1736664896987,1.7170501,3.624,8.868,,,,,,,,,,,,,,,,,,
1736664896997,1.66005,3.7740002,8.712001,,,,,,,,,,,,,,,,,,
1736664897008,1.62195,3.8800502,8.578051,,,,,,,,,,,,,,,,,,
1736664897018,1.6330501,4.00395,8.52105,,,,,,,,,,,,,,,,,,
1736664897028,1.6650001,4.09305,8.556001,,,,,,,,,,,,,,,,,,
1736664897038,1.6810501,4.09095,8.614051,,,,,,,,,,,,,,,,,,
1736664897048,1.69095,3.9949503,8.70195,,,,,,,,,,,,,,,,,,
1736664897058,1.6380001,3.86805,8.79105,,,,,,,,,,,,,,,,,,
1736664897068,1.542,3.7360501,8.99505,,,,,,,,,,,,,,,,,,
1736664897079,1.48695,3.6499503,9.16905,,,,,,,,,,,,,,,,,,
1736664897088,1.4950501,3.6139503,9.26805,,,,,,,,,,,,,,,,,,
1736664897098,1.48695,3.5830503,9.27705,,,,,,,,,,,,,,,,,,
1736664897109,1.50705,3.5419502,9.17205,,,,,,,,,,,,,,,,,,
1736664897118,1.58595,3.55395,9.121051,,,,,,,,,,,,,,,,,,
1736664897128,1.69305,3.525,9.0400505,,,,,,,,,,,,,,,,,,
1736664897138,1.87995,3.48705,8.817,,,,,,,,,,,,,,,,,,
1736664897149,2.1000001,3.5490003,8.590051,,,,,,,,,,,,,,,,,,
1736664897158,2.3730001,3.66,8.488951,,,,,,,,,,,,,,,,,,
1736664897169,2.5500002,3.6210003,8.346001,,,,,,,,,,,,,,,,,,
1736664897178,2.62905,3.4990501,8.266951,,,,,,,,,,,,,,,,,,
1736664897188,2.5890002,3.3670502,8.382,,,,,,,,,,,,,,,,,,
1736664897198,2.4070501,3.2290502,8.65905,,,,,,,,,,,,,,,,,,
1736664897209,2.25795,3.0660002,9.0400505,,,,,,,,,,,,,,,,,,
1736664897218,2.18205,2.901,9.32295,,,,,,,,,,,,,,,,,,
1736664897228,2.2060502,2.81205,9.450001,,,,,,,,,,,,,,,,,,
1736664897239,2.2060502,2.73795,9.538051,,,,,,,,,,,,,,,,,,
1736664897250,2.2099502,2.6800501,9.535951,,,,,,,,,,,,,,,,,,
1736664897259,2.18895,2.7229502,9.58395,,,,,,,,,,,,,,,,,,
1736664897270,2.127,2.8600502,9.615001,,,,,,,,,,,,,,,,,,
1736664897279,1.9570501,2.9530501,9.555,,,,,,,,,,,,,,,,,,
1736664897289,1.7479501,3.0919502,9.5119505,,,,,,,,,,,,,,,,,,
1736664897300,1.57395,3.2239501,9.435,,,,,,,,,,,,,,,,,,
1736664897309,1.4830501,3.3240001,9.379951,,,,,,,,,,,,,,,,,,
1736664897319,1.42005,3.384,9.37005,,,,,,,,,,,,,,,,,,
1736664897330,1.33905,3.4320002,9.31995,,,,,,,,,,,,,,,,,,
1736664897339,1.3099501,3.528,9.241051,,,,,,,,,,,,,,,,,,
1736664897349,1.3080001,3.66195,9.088051,,,,,,,,,,,,,,,,,,
1736664897359,1.26705,3.7429502,8.916,,,,,,,,,,,,,,,,,,
1736664897369,1.1710501,3.8130002,8.77005,,,,,,,,,,,,,,,,,,
1736664897379,1.056,3.86805,8.65905,,,,,,,,,,,,,,,,,,
1736664897389,0.9799501,3.8490002,8.647051,,,,,,,,,,,,,,,,,,
1736664897399,0.96495,3.79605,8.608951,,,,,,,,,,,,,,,,,,
1736664897409,1.03995,3.75795,8.71695,,,,,,,,,,,,,,,,,,
1736664897419,1.1590501,3.6829503,8.85105,,,,,,,,,,,,,,,,,,
1736664897429,1.24995,3.5730002,8.892,,,,,,,,,,,,,,,,,,
1736664897440,1.3440001,3.4609501,8.93505,,,,,,,,,,,,,,,,,,
1736664897450,1.47105,3.3720002,8.941951,,,,,,,,,,,,,,,,,,
1736664897459,1.521,3.315,8.920051,,,,,,,,,,,,,,,,,,
1736664897470,1.5280501,3.3030002,8.932051,,,,,,,,,,,,,,,,,,
1736664897481,1.4749501,3.3630002,8.904,,,,,,,,,,,,,,,,,,
1736664897490,1.4749501,3.4680002,8.88195,,,,,,,,,,,,,,,,,,
1736664897500,1.4779501,3.5419502,8.809951,,,,,,,,,,,,,,,,,,
1736664897510,1.473,3.5370002,8.71695,,,,,,,,,,,,,,,,,,
1736664897520,1.45395,3.4680002,8.68095,,,,,,,,,,,,,,,,,,
1736664897531,1.49205,3.45795,8.781,,,,,,,,,,,,,,,,,,
1736664897540,1.58595,3.456,8.929951,,,,,,,,,,,,,,,,,,
1736664897551,1.6860001,3.4110003,9.081,,,,,,,,,,,,,,,,,,
1736664897560,1.815,3.31995,9.271951,,,,,,,,,,,,,,,,,,
1736664897570,1.9039501,3.2380502,9.39,,,,,,,,,,,,,,,,,,
1736664897581,1.9570501,3.1570501,9.346951,,,,,,,,,,,,,,,,,,
1736664897590,1.9230001,3.07095,9.291,,,,,,,,,,,,,,,,,,
1736664897600,1.83,3.006,9.330001,,,,,,,,,,,,,,,,,,
1736664897610,1.6360501,2.9560502,9.31995,,,,,,,,,,,,,,,,,,
1736664897621,1.4470501,2.946,9.379951,,,,,,,,,,,,,,,,,,
1736664897630,1.3800001,3.1020002,9.517051,,,,,,,,,,,,,,,,,,
1736664897640,1.4299501,3.2929502,9.493051,,,,,,,,,,,,,,,,,,
1736664897651,1.4830501,3.456,9.366,,,,,,,,,,,,,,,,,,
1736664897660,1.54005,3.5730002,9.0709505,,,,,,,,,,,,,,,,,,
1736664897670,1.57395,3.6979501,8.73795,,,,,,,,,,,,,,,,,,
1736664897681,1.5139501,3.798,8.406,,,,,,,,,,,,,,,,,,
1736664897692,1.4830501,3.8490002,8.21595,,,,,,,,,,,,,,,,,,
1736664897701,1.4680501,3.9210002,8.17095,,,,,,,,,,,,,,,,,,
1736664897711,1.485,3.966,8.19495,,,,,,,,,,,,,,,,,,
1736664897722,1.4970001,3.8940003,8.25195,,,,,,,,,,,,,,,,,,
1736664897731,1.557,3.7480502,8.379001,,,,,,,,,,,,,,,,,,
1736664897741,1.64295,3.5520003,8.53695,,,,,,,,,,,,,,,,,,
1736664897752,1.6720501,3.3460503,8.70195,,,,,,,,,,,,,,,,,,
1736664897761,1.6840501,3.0589502,8.89605,,,,,,,,,,,,,,,,,,
1736664897771,1.7080501,2.9509501,9.14805,,,,,,,,,,,,,,,,,,
1736664897781,1.72695,2.874,9.397051,,,,,,,,,,,,,,,,,,
1736664897792,1.76505,2.7640502,9.5449505,,,,,,,,,,,,,,,,,,
1736664897801,1.8679501,2.7930002,9.49995,,,,,,,,,,,,,,,,,,
1736664897811,1.9810501,2.97195,9.315001,,,,,,,,,,,,,,,,,,
1736664897822,2.01705,3.04905,8.96805,,,,,,,,,,,,,,,,,,
1736664897831,1.8540001,2.9580002,8.635051,,,,,,,,,,,,,,,,,,
1736664897841,1.6309501,2.8620002,8.511001,,,,,,,,,,,,,,,,,,
1736664897852,1.3960501,2.8530002,8.54205,,,,,,,,,,,,,,,,,,
1736664897861,1.21905,2.9650502,8.590051,,,,,,,,,,,,,,,,,,
1736664897871,1.1190001,3.1230001,8.652,,,,,,,,,,,,,,,,,,
1736664897881,1.044,3.2569501,8.7960005,,,,,,,,,,,,,,,,,,
1736664897891,0.97005004,3.2740502,8.99205,,,,,,,,,,,,,,,,,,
1736664897902,0.93000007,3.3030002,9.2029505,,,,,,,,,,,,,,,,,,
1736664897911,0.89805007,3.3100502,9.427951,,,,,,,,,,,,,,,,,,
1736664897922,0.79995006,3.28095,9.552,,,,,,,,,,,,,,,,,,
1736664897932,0.74295,3.3340502,9.555,,,,,,,,,,,,,,,,,,
1736664897943,0.73605,3.4680002,9.387,,,,,,,,,,,,,,,,,,
1736664897952,0.72105,3.5689502,9.118951,,,,,,,,,,,,,,,,,,
1736664897963,0.61605,3.5730002,8.875051,,,,,,,,,,,,,,,,,,
1736664894976,,,,-12.356251,-22.2,-21.84375,,,,,,,,,,,,,,,
1736664894995,,,,-13.012501,-22.25625,-21.956251,,,,,,,,,,,,,,,
1736664895015,,,,-13.556251,-22.3875,-21.712502,,,,,,,,,,,,,,,
1736664895035,,,,-14.1,-22.44375,-21.712502,,,,,,,,,,,,,,,
1736664895055,,,,-15.1125,-22.2,-21.54375,,,,,,,,,,,,,,,
1736664895075,,,,-15.95625,-22.44375,-21.112501,,,,,,,,,,,,,,,
1736664895095,,,,-16.9125,-22.800001,-20.7,,,,,,,,,,,,,,,
1736664895115,,,,-18.056252,-23.04375,-20.1,,,,,,,,,,,,,,,
1736664895135,,,,-19.0125,-23.94375,-19.743752,,,,,,,,,,,,,,,
1736664895155,,,,-20.212502,-24.300001,-19.800001,,,,,,,,,,,,,,,
1736664895175,,,,-21.243752,-24.6,-19.5,,,,,,,,,,,,,,,
1736664895196,,,,-22.3125,-25.143751,-19.612501,,,,,,,,,,,,,,,
1736664895216,,,,-23.34375,-25.2,-19.556252,,,,,,,,,,,,,,,
1736664895235,,,,-24.300001,-25.25625,-19.143751,,,,,,,,,,,,,,,
1736664895256,,,,-25.25625,-25.44375,-19.2,,,,,,,,,,,,,,,
1736664895275,,,,-25.85625,-25.25625,-19.143751,,,,,,,,,,,,,,,
1736664895295,,,,-26.643751,-25.25625,-19.0125,,,,,,,,,,,,,,,
1736664895315,,,,-27.35625,-25.44375,-19.143751,,,,,,,,,,,,,,,
1736664895335,,,,-28.500002,-25.500002,-19.3125,,,,,,,,,,,,,,,
1736664895355,,,,-29.94375,-25.2,-18.956251,,,,,,,,,,,,,,,
1736664895375,,,,-31.143751,-25.2,-19.2,,,,,,,,,,,,,,,
1736664895395,,,,-32.456253,-25.3875,-19.25625,,,,,,,,,,,,,,,
1736664895415,,,,-33.54375,-25.500002,-19.2,,,,,,,,,,,,,,,
1736664895435,,,,-34.55625,-25.85625,-19.25625,,,,,,,,,,,,,,,
1736664895455,,,,-35.643753,-25.800001,-18.712502,,,,,,,,,,,,,,,
1736664895475,,,,-36.35625,-25.500002,-18.712502,,,,,,,,,,,,,,,
1736664895495,,,,-37.3125,-25.25625,-18.712502,,,,,,,,,,,,,,,
1736664895515,,,,-38.4,-25.2,-18.6,,,,,,,,,,,,,,,
1736664895535,,,,-39.112503,-24.956251,-19.25625,,,,,,,,,,,,,,,
1736664895555,,,,-40.0125,-25.2,-19.2,,,,,,,,,,,,,,,
1736664895576,,,,-40.800003,-25.556252,-19.44375,,,,,,,,,,,,,,,
1736664895596,,,,-41.100002,-25.3875,-19.9125,,,,,,,,,,,,,,,
1736664895616,,,,-42.0,-25.500002,-19.2,,,,,,,,,,,,,,,
1736664895636,,,,-42.35625,-25.25625,-19.3125,,,,,,,,,,,,,,,
1736664895655,,,,-42.84375,-24.900002,-19.143751,,,,,,,,,,,,,,,
1736664895675,,,,-43.612503,-25.143751,-18.4125,,,,,,,,,,,,,,,
1736664895695,,,,-44.15625,-25.25625,-18.900002,,,,,,,,,,,,,,,
1736664895715,,,,-45.05625,-25.44375,-18.65625,,,,,,,,,,,,,,,
1736664895736,,,,-45.7125,-25.143751,-18.35625,,,,,,,,,,,,,,,
1736664895755,,,,-46.443752,-24.843752,-18.35625,,,,,,,,,,,,,,,
1736664895775,,,,-46.74375,-24.056252,-17.75625,,,,,,,,,,,,,,,
1736664895796,,,,-47.04375,-23.643751,-17.5125,,,,,,,,,,,,,,,
1736664895815,,,,-47.456253,-23.587502,-17.5125,,,,,,,,,,,,,,,
1736664895835,,,,-47.8125,-23.2875,-17.75625,,,,,,,,,,,,,,,
1736664895856,,,,-48.24375,-23.34375,-18.056252,,,,,,,,,,,,,,,
1736664895876,,,,-48.35625,-22.85625,-18.056252,,,,,,,,,,,,,,,
1736664895895,,,,-48.9,-22.143751,-18.300001,,,,,,,,,,,,,,,
1736664895915,,,,-49.55625,-21.65625,-17.94375,,,,,,,,,,,,,,,
1736664895934,,,,-49.85625,-21.487501,-17.456251,,,,,,,,,,,,,,,
1736664895954,,,,-50.4,-21.300001,-17.456251,,,,,,,,,,,,,,,
1736664895974,,,,-50.643753,-21.6,-17.456251,,,,,,,,,,,,,,,
1736664895994,,,,-50.343754,-21.65625,-17.75625,,,,,,,,,,,,,,,
1736664896014,,,,-50.943752,-21.900002,-18.243752,,,,,,,,,,,,,,,
1736664896034,,,,-51.412502,-21.956251,-18.056252,,,,,,,,,,,,,,,
1736664896054,,,,-51.412502,-22.3875,-17.75625,,,,,,,,,,,,,,,
1736664896074,,,,-51.956253,-22.6875,-17.643751,,,,,,,,,,,,,,,
1736664896094,,,,-52.0125,-22.5,-17.5125,,,,,,,,,,,,,,,
1736664896114,,,,-51.956253,-22.556252,-17.75625,,,,,,,,,,,,,,,
1736664896134,,,,-51.843754,-22.5,-17.75625,,,,,,,,,,,,,,,
1736664896156,,,,-51.7125,-22.556252,-18.0,,,,,,,,,,,,,,,
1736664896175,,,,-51.7125,-22.987501,-17.8125,,,,,,,,,,,,,,,
1736664896195,,,,-51.54375,-23.2875,-17.643751,,,,,,,,,,,,,,,
1736664896215,,,,-51.54375,-23.15625,-17.400002,,,,,,,,,,,,,,,
1736664896235,,,,-51.412502,-23.1,-16.9125,,,,,,,,,,,,,,,
1736664896255,,,,-51.35625,-22.85625,-16.5,,,,,,,,,,,,,,,
1736664896275,,,,-51.412502,-22.800001,-16.25625,,,,,,,,,,,,,,,
1736664896295,,,,-51.7125,-22.800001,-16.143751,,,,,,,,,,,,,,,
1736664896316,,,,-51.843754,-22.743752,-15.95625,,,,,,,,,,,,,,,
1736664896336,,,,-52.0125,-22.743752,-16.2,,,,,,,,,,,,,,,
1736664896356,,,,-52.143753,-22.556252,-16.143751,,,,,,,,,,,,,,,
1736664896375,,,,-52.0125,-22.85625,-16.0125,,,,,,,,,,,,,,,
1736664896395,,,,-52.2,-22.987501,-16.2,,,,,,,,,,,,,,,
1736664896415,,,,-51.7125,-22.800001,-16.0125,,,,,,,,,,,,,,,
1736664896435,,,,-51.843754,-22.987501,-16.143751,,,,,,,,,,,,,,,
1736664896455,,,,-51.7125,-23.1,-16.25625,,,,,,,,,,,,,,,
1736664896475,,,,-51.54375,-23.400002,-16.3125,,,,,,,,,,,,,,,
1736664896495,,,,-52.0125,-24.0,-16.25625,,,,,,,,,,,,,,,
1736664896515,,,,-52.0125,-24.187502,-16.2,,,,,,,,,,,,,,,
1736664896536,,,,-52.443752,-24.300001,-16.0125,,,,,,,,,,,,,,,
1736664896556,,,,-52.443752,-24.54375,-15.95625,,,,,,,,,,,,,,,
1736664896575,,,,-52.256252,-24.487501,-16.5,,,,,,,,,,,,,,,
1736664896595,,,,-52.0125,-24.6,-16.800001,,,,,,,,,,,,,,,
1736664896615,,,,-51.843754,-24.487501,-16.85625,,,,,,,,,,,,,,,
1736664896636,,,,-51.956253,-24.243752,-17.1,,,,,,,,,,,,,,,
1736664896655,,,,-51.7125,-24.300001,-17.04375,,,,,,,,,,,,,,,
1736664896675,,,,-51.7125,-24.656252,-16.9125,,,,,,,,,,,,,,,
1736664896696,,,,-51.7125,-24.7875,-17.04375,,,,,,,,,,,,,,,
1736664896715,,,,-51.54375,-24.956251,-17.04375,,,,,,,,,,,,,,,
1736664896735,,,,-51.656254,-24.956251,-16.612501,,,,,,,,,,,,,,,
1736664896755,,,,-51.843754,-24.656252,-16.612501,,,,,,,,,,,,,,,
1736664896776,,,,-51.9,-24.7875,-17.15625,,,,,,,,,,,,,,,
1736664896795,,,,-51.956253,-24.656252,-16.800001,,,,,,,,,,,,,,,
1736664896816,,,,-51.956253,-24.54375,-17.212502,,,,,,,,,,,,,,,
1736664896835,,,,-52.143753,-24.656252,-17.15625,,,,,,,,,,,,,,,
1736664896856,,,,-52.143753,-24.843752,-16.800001,,,,,,,,,,,,,,,
1736664896875,,,,-51.956253,-24.7875,-17.04375,,,,,,,,,,,,,,,
1736664896895,,,,-51.843754,-24.900002,-16.556252,,,,,,,,,,,,,,,
1736664896915,,,,-51.600002,-24.843752,-17.04375,,,,,,,,,,,,,,,
1736664896935,,,,-51.843754,-24.487501,-17.1,,,,,,,,,,,,,,,
1736664896956,,,,-51.843754,-24.6,-17.212502,,,,,,,,,,,,,,,
1736664896976,,,,-52.0125,-24.35625,-17.456251,,,,,,,,,,,,,,,
1736664896996,,,,-52.612503,-24.6,-17.212502,,,,,,,,,,,,,,,
1736664897015,,,,-52.55625,-25.143751,-17.04375,,,,,,,,,,,,,,,
1736664897036,,,,-52.800003,-25.3875,-17.15625,,,,,,,,,,,,,,,
1736664897055,,,,-52.500004,-25.500002,-17.15625,,,,,,,,,,,,,,,
1736664897075,,,,-52.143753,-25.3875,-17.400002,,,,,,,,,,,,,,,
1736664897096,,,,-51.7125,-25.143751,-17.5125,,,,,,,,,,,,,,,
1736664897116,,,,-52.143753,-25.087502,-17.15625,,,,,,,,,,,,,,,
1736664897135,,,,-52.500004,-25.3875,-17.04375,,,,,,,,,,,,,,,
1736664897156,,,,-52.612503,-25.3875,-16.743752,,,,,,,,,,,,,,,
1736664897176,,,,-52.612503,-25.500002,-16.743752,,,,,,,,,,,,,,,
1736664897195,,,,-52.500004,-25.087502,-16.800001,,,,,,,,,,,,,,,
1736664897215,,,,-52.74375,-24.900002,-17.212502,,,,,,,,,,,,,,,
1736664897235,,,,-52.312504,-24.956251,-17.212502,,,,,,,,,,,,,,,
1736664897255,,,,-52.55625,-24.843752,-17.1,,,,,,,,,,,,,,,
1736664897275,,,,-52.2,-25.25625,-17.04375,,,,,,,,,,,,,,,
1736664897295,,,,-51.7125,-25.2,-17.34375,,,,,,,,,,,,,,,
1736664897316,,,,-51.656254,-25.143751,-17.04375,,,,,,,,,,,,,,,
1736664897335,,,,-51.35625,-24.656252,-17.5125,,,,,,,,,,,,,,,
1736664897355,,,,-51.24375,-24.7875,-17.75625,,,,,,,,,,,,,,,
1736664897376,,,,-51.05625,-25.087502,-17.400002,,,,,,,,,,,,,,,
1736664897395,,,,-50.943752,-25.500002,-17.75625,,,,,,,,,,,,,,,
1736664897415,,,,-50.943752,-26.156252,-17.15625,,,,,,,,,,,,,,,
1736664897435,,,,-51.300003,-26.343752,-17.15625,,,,,,,,,,,,,,,
1736664897456,,,,-51.300003,-26.400002,-17.34375,,,,,,,,,,,,,,,
1736664897475,,,,-51.600002,-26.587502,-17.34375,,,,,,,,,,,,,,,
1736664897495,,,,-51.7125,-26.643751,-17.7,,,,,,,,,,,,,,,
1736664897516,,,,-51.300003,-26.400002,-17.643751,,,,,,,,,,,,,,,
1736664897535,,,,-51.412502,-26.456251,-17.04375,,,,,,,,,,,,,,,
1736664897555,,,,-51.412502,-26.2875,-17.04375,,,,,,,,,,,,,,,
1736664897575,,,,-51.300003,-26.04375,-17.212502,,,,,,,,,,,,,,,
1736664897596,,,,-51.7125,-25.743752,-17.15625,,,,,,,,,,,,,,,
1736664897616,,,,-52.0125,-25.44375,-17.643751,,,,,,,,,,,,,,,
1736664897635,,,,-52.0125,-25.2,-17.75625,,,,,,,,,,,,,,,
1736664897655,,,,-51.956253,-25.087502,-17.212502,,,,,,,,,,,,,,,
1736664897675,,,,-51.843754,-25.25625,-17.34375,,,,,,,,,,,,,,,
1736664897695,,,,-51.112503,-25.143751,-17.1,,,,,,,,,,,,,,,
1736664897716,,,,-51.112503,-24.843752,-16.9125,,,,,,,,,,,,,,,
1736664897735,,,,-51.35625,-24.956251,-17.15625,,,,,,,,,,,,,,,
1736664897756,,,,-51.300003,-24.956251,-17.15625,,,,,,,,,,,,,,,
1736664897775,,,,-51.112503,-24.656252,-17.456251,,,,,,,,,,,,,,,
1736664897795,,,,-51.000004,-24.6,-17.643751,,,,,,,,,,,,,,,
1736664897815,,,,-50.943752,-24.056252,-17.75625,,,,,,,,,,,,,,,
1736664897835,,,,-50.812504,-23.587502,-17.94375,,,,,,,,,,,,,,,
1736664897855,,,,-51.000004,-23.75625,-18.243752,,,,,,,,,,,,,,,
1736664897876,,,,-50.343754,-23.587502,-18.300001,,,,,,,,,,,,,,,
1736664897895,,,,-49.85625,-23.587502,-18.35625,,,,,,,,,,,,,,,
1736664897916,,,,-48.956253,-23.456251,-18.65625,,,,,,,,,,,,,,,
1736664897935,,,,-48.54375,-23.1,-18.956251,,,,,,,,,,,,,,,
1736664897955,,,,-48.656254,-23.04375,-19.25625,,,,,,,,,,,,,,,
1736664897976,,,,-48.300003,-22.800001,-19.612501,,,,,,,,,,,,,,,
1736664894969,,,,,,,-0.744272,4.698304,8.575738,,,,,,,,,,,,
1736664894978,,,,,,,-0.724103,4.700535,8.576253,,,,,,,,,,,,
1736664894989,,,,,,,-0.708458,4.709465,8.572664,,,,,,,,,,,,
1736664894999,,,,,,,-0.685579,4.689926,8.585219,,,,,,,,,,,,
1736664895009,,,,,,,-0.676469,4.692064,8.584766,,,,,,,,,,,,
1736664895019,,,,,,,-0.641106,4.676481,8.595968,,,,,,,,,,,,
1736664895030,,,,,,,-0.619277,4.675815,8.597927,,,,,,,,,,,,
1736664895039,,,,,,,-0.59204,4.668799,8.603651,,,,,,,,,,,,
1736664895050,,,,,,,-0.577337,4.676102,8.60069,,,,,,,,,,,,
1736664895059,,,,,,,-0.55028,4.67078,8.60536,,,,,,,,,,,,
1736664895070,,,,,,,-0.535702,4.675959,8.603477,,,,,,,,,,,,
1736664895079,,,,,,,-0.49438,4.649846,8.620094,,,,,,,,,,,,
1736664895090,,,,,,,-0.469983,4.642994,8.625156,,,,,,,,,,,,
1736664895099,,,,,,,-0.389679,4.582231,8.661572,,,,,,,,,,,,
1736664895109,,,,,,,-0.340957,4.540117,8.685763,,,,,,,,,,,,
1736664895120,,,,,,,-0.245551,4.454995,8.732923,,,,,,,,,,,,
1736664895129,,,,,,,-0.172678,4.387771,8.768619,,,,,,,,,,,,
1736664895139,,,,,,,-0.073927,4.300919,8.812916,,,,,,,,,,,,
1736664895150,,,,,,,0.006206,4.223889,8.850395,,,,,,,,,,,,
1736664895160,,,,,,,0.096166,4.147976,8.885706,,,,,,,,,,,,
1736664895169,,,,,,,0.169999,4.08331,8.914504,,,,,,,,,,,,
1736664895179,,,,,,,0.280054,4.04048,8.931228,,,,,,,,,,,,
1736664895189,,,,,,,0.355921,3.998432,8.947435,,,,,,,,,,,,
1736664895200,,,,,,,0.485102,3.973321,8.952548,,,,,,,,,,,,
1736664895209,,,,,,,0.571495,3.947239,8.958982,,,,,,,,,,,,
1736664895220,,,,,,,0.691503,3.943849,8.952009,,,,,,,,,,,,
1736664895230,,,,,,,0.783459,3.92337,8.953429,,,,,,,,,,,,
1736664895241,,,,,,,0.834841,3.911177,8.95412,,,,,,,,,,,,
1736664895250,,,,,,,0.905082,3.886993,8.957821,,,,,,,,,,,,
1736664895260,,,,,,,0.918709,3.842391,8.975661,,,,,,,,,,,,
1736664895270,,,,,,,0.959848,3.800042,8.989379,,,,,,,,,,,,
1736664895280,,,,,,,0.978267,3.726883,9.017978,,,,,,,,,,,,
1736664895290,,,,,,,1.001721,3.67797,9.03547,,,,,,,,,,,,
1736664895301,,,,,,,1.069057,3.616854,9.052405,,,,,,,,,,,,
1736664895310,,,,,,,1.10086,3.573582,9.065763,,,,,,,,,,,,
1736664895320,,,,,,,1.187481,3.528334,9.072548,,,,,,,,,,,,
1736664895330,,,,,,,1.241423,3.505464,9.074195,,,,,,,,,,,,
1736664895341,,,,,,,1.305137,3.486825,9.072439,,,,,,,,,,,,
1736664895350,,,,,,,1.353811,3.474716,9.069959,,,,,,,,,,,,
1736664895361,,,,,,,1.376251,3.466204,9.069845,,,,,,,,,,,,
1736664895370,,,,,,,1.405809,3.460162,9.067621,,,,,,,,,,,,
1736664895381,,,,,,,1.397749,3.445005,9.074636,,,,,,,,,,,,
1736664895390,,,,,,,1.409527,3.428439,9.079079,,,,,,,,,,,,
1736664895400,,,,,,,1.39878,3.373631,9.101238,,,,,,,,,,,,
1736664895410,,,,,,,1.400917,3.324118,9.119105,,,,,,,,,,,,
1736664895420,,,,,,,1.419136,3.240999,9.146169,,,,,,,,,,,,
1736664895431,,,,,,,1.438674,3.159767,9.171514,,,,,,,,,,,,
1736664895440,,,,,,,1.481148,3.082175,9.191144,,,,,,,,,,,,
1736664895451,,,,,,,1.521055,3.011442,9.208062,,,,,,,,,,,,
1736664895461,,,,,,,1.552863,2.964788,9.217883,,,,,,,,,,,,
1736664895471,,,,,,,1.587664,2.928411,9.223576,,,,,,,,,,,,
1736664895482,,,,,,,1.604297,2.922635,9.222524,,,,,,,,,,,,
1736664895491,,,,,,,1.611153,2.922604,9.221337,,,,,,,,,,,,
1736664895502,,,,,,,1.641469,2.948502,9.207739,,,,,,,,,,,,
1736664895512,,,,,,,1.646512,2.97312,9.198925,,,,,,,,,,,,
1736664895521,,,,,,,1.706295,3.017703,9.173481,,,,,,,,,,,,
1736664895531,,,,,,,1.745201,3.050099,9.155429,,,,,,,,,,,,
1736664895542,,,,,,,1.788731,3.098758,9.130649,,,,,,,,,,,,
1736664895551,,,,,,,1.841388,3.126932,9.110549,,,,,,,,,,,,
1736664895561,,,,,,,1.825265,3.172196,9.098133,,,,,,,,,,,,
1736664895571,,,,,,,1.839568,3.194764,9.087349,,,,,,,,,,,,
1736664895581,,,,,,,1.819584,3.212192,9.085228,,,,,,,,,,,,
1736664895592,,,,,,,1.805329,3.228126,9.082424,,,,,,,,,,,,
1736664895602,,,,,,,1.827753,3.209145,9.084671,,,,,,,,,,,,
1736664895612,,,,,,,1.836844,3.202586,9.085155,,,,,,,,,,,,
1736664895621,,,,,,,1.894788,3.192554,9.076781,,,,,,,,,,,,
1736664895631,,,,,,,1.928896,3.180668,9.073765,,,,,,,,,,,,
1736664895641,,,,,,,1.941237,3.180301,9.071258,,,,,,,,,,,,
1736664895651,,,,,,,1.96241,3.180125,9.066761,,,,,,,,,,,,
1736664895662,,,,,,,1.927046,3.179021,9.074734,,,,,,,,,,,,
1736664895673,,,,,,,1.906663,3.176632,9.079876,,,,,,,,,,,,
1736664895682,,,,,,,1.882591,3.155348,9.092312,,,,,,,,,,,,
1736664895693,,,,,,,1.862885,3.146339,9.099491,,,,,,,,,,,,
1736664895702,,,,,,,1.873957,3.104085,9.111722,,,,,,,,,,,,
1736664895712,,,,,,,1.876304,3.075364,9.120973,,,,,,,,,,,,
1736664895722,,,,,,,1.898245,3.047576,9.125757,,,,,,,,,,,,
1736664895733,,,,,,,1.91117,3.021169,9.131835,,,,,,,,,,,,
1736664895743,,,,,,,1.897449,3.025126,9.133388,,,,,,,,,,,,
1736664895753,,,,,,,1.896902,3.023414,9.134071,,,,,,,,,,,,
1736664895763,,,,,,,1.858083,3.056607,9.131006,,,,,,,,,,,,
1736664895773,,,,,,,1.829231,3.079711,9.129074,,,,,,,,,,,,
1736664895782,,,,,,,1.80689,3.127776,9.117181,,,,,,,,,,,,
1736664895792,,,,,,,1.778924,3.165926,9.109514,,,,,,,,,,,,
1736664895803,,,,,,,1.787977,3.202963,9.094786,,,,,,,,,,,,
1736664895812,,,,,,,1.786161,3.238767,9.082456,,,,,,,,,,,,
1736664895822,,,,,,,1.829192,3.264674,9.064598,,,,,,,,,,,,
1736664895832,,,,,,,1.850652,3.28566,9.052649,,,,,,,,,,,,
1736664895843,,,,,,,1.908497,3.306973,9.032851,,,,,,,,,,,,
1736664895853,,,,,,,1.949694,3.319906,9.019296,,,,,,,,,,,,
1736664895863,,,,,,,1.977829,3.325244,9.011196,,,,,,,,,,,,
1736664895873,,,,,,,2.011174,3.331223,9.001599,,,,,,,,,,,,
1736664895882,,,,,,,2.026917,3.307264,9.0069,,,,,,,,,,,,
1736664895894,,,,,,,2.049537,3.292207,9.007293,,,,,,,,,,,,
1736664895903,,,,,,,2.07445,3.263666,9.011973,,,,,,,,,,,,
1736664895913,,,,,,,2.094694,3.24794,9.012969,,,,,,,,,,,,
1736664895924,,,,,,,2.104622,3.234808,9.015378,,,,,,,,,,,,
1736664895933,,,,,,,2.115081,3.227137,9.015681,,,,,,,,,,,,
1736664895943,,,,,,,2.090101,3.230452,9.020322,,,,,,,,,,,,
1736664895954,,,,,,,2.075367,3.23843,9.020866,,,,,,,,,,,,
1736664895963,,,,,,,2.042354,3.256196,9.022007,,,,,,,,,,,,
1736664895973,,,,,,,2.017196,3.266885,9.0238,,,,,,,,,,,,
1736664895983,,,,,,,2.006586,3.309292,9.0107,,,,,,,,,,,,
1736664895994,,,,,,,1.995012,3.331869,9.004949,,,,,,,,,,,,
1736664896004,,,,,,,2.007385,3.411255,8.972419,,,,,,,,,,,,
1736664896013,,,,,,,2.015725,3.459418,8.952085,,,,,,,,,,,,
1736664896023,,,,,,,2.022476,3.574211,8.905342,,,,,,,,,,,,
1736664896033,,,,,,,2.032526,3.653285,8.870898,,,,,,,,,,,,
1736664896043,,,,,,,2.025565,3.745977,8.833755,,,,,,,,,,,,
1736664896053,,,,,,,2.02356,3.825744,8.799962,,,,,,,,,,,,
1736664896063,,,,,,,2.023501,3.914763,8.760735,,,,,,,,,,,,
1736664896073,,,,,,,2.017878,3.996703,8.72496,,,,,,,,,,,,
1736664896083,,,,,,,2.021175,4.034324,8.706864,,,,,,,,,,,,
1736664896094,,,,,,,2.016213,4.077602,8.687834,,,,,,,,,,,,
1736664896103,,,,,,,2.026235,4.067103,8.690425,,,,,,,,,,,,
1736664896113,,,,,,,2.035355,4.07059,8.686663,,,,,,,,,,,,
1736664896124,,,,,,,2.027165,4.021885,8.711231,,,,,,,,,,,,
1736664896134,,,,,,,2.0266,3.99185,8.725166,,,,,,,,,,,,
1736664896145,,,,,,,1.993587,3.91773,8.766273,,,,,,,,,,,,
1736664896154,,,,,,,1.970934,3.860237,8.796848,,,,,,,,,,,,
1736664896165,,,,,,,1.922073,3.780589,8.842135,,,,,,,,,,,,
1736664896174,,,,,,,1.883183,3.715255,8.878121,,,,,,,,,,,,
1736664896185,,,,,,,1.836882,3.658788,8.911208,,,,,,,,,,,,
1736664896194,,,,,,,1.798592,3.604417,8.941125,,,,,,,,,,,,
1736664896205,,,,,,,1.769388,3.584914,8.954782,,,,,,,,,,,,
1736664896215,,,,,,,1.744389,3.561508,8.969012,,,,,,,,,,,,
1736664896224,,,,,,,1.723316,3.571076,8.969282,,,,,,,,,,,,
1736664896234,,,,,,,1.702353,3.575642,8.971465,,,,,,,,,,,,
1736664896244,,,,,,,1.695697,3.609475,8.959167,,,,,,,,,,,,
1736664896254,,,,,,,1.680632,3.63148,8.953115,,,,,,,,,,,,
1736664896265,,,,,,,1.702107,3.672311,8.932377,,,,,,,,,,,,
1736664896274,,,,,,,1.710816,3.7031,8.917993,,,,,,,,,,,,
1736664896285,,,,,,,1.754625,3.720617,8.902175,,,,,,,,,,,,
1736664896295,,,,,,,1.786688,3.740196,8.887582,,,,,,,,,,,,
1736664896304,,,,,,,1.828151,3.725413,8.885355,,,,,,,,,,,,
1736664896315,,,,,,,1.863806,3.722747,8.879064,,,,,,,,,,,,
1736664896324,,,,,,,1.883066,3.689359,8.888931,,,,,,,,,,,,
1736664896334,,,,,,,1.90263,3.666766,8.894112,,,,,,,,,,,,
1736664896345,,,,,,,1.907065,3.629364,8.908491,,,,,,,,,,,,
1736664896355,,,,,,,1.911246,3.602197,8.918617,,,,,,,,,,,,
1736664896365,,,,,,,1.894962,3.569726,8.935133,,,,,,,,,,,,
1736664896375,,,,,,,1.890045,3.541461,8.947412,,,,,,,,,,,,
1736664896385,,,,,,,1.860107,3.517734,8.963034,,,,,,,,,,,,
1736664896395,,,,,,,1.84666,3.492185,8.975797,,,,,,,,,,,,
1736664896405,,,,,,,1.828867,3.494369,8.978591,,,,,,,,,,,,
1736664896415,,,,,,,1.813169,3.483857,8.985859,,,,,,,,,,,,
1736664896425,,,,,,,1.814866,3.521926,8.970663,,,,,,,,,,,,
1736664896435,,,,,,,1.809576,3.540049,8.964596,,,,,,,,,,,,
1736664896446,,,,,,,1.811502,3.58927,8.94461,,,,,,,,,,,,
1736664896456,,,,,,,1.808575,3.631314,8.928215,,,,,,,,,,,,
1736664896465,,,,,,,1.800333,3.662206,8.917256,,,,,,,,,,,,
1736664896475,,,,,,,1.789046,3.697914,8.904781,,,,,,,,,,,,
1736664896486,,,,,,,1.787268,3.703452,8.902839,,,,,,,,,,,,
1736664896495,,,,,,,1.782122,3.71859,8.897557,,,,,,,,,,,,
1736664896505,,,,,,,1.787147,3.704913,8.902252,,,,,,,,,,,,
1736664896515,,,,,,,1.79248,3.695624,8.905042,,,,,,,,,,,,
1736664896525,,,,,,,1.799195,3.676025,8.911798,,,,,,,,,,,,
1736664896536,,,,,,,1.807524,3.656182,8.918272,,,,,,,,,,,,
1736664896545,,,,,,,1.806229,3.641915,8.924374,,,,,,,,,,,,
1736664896555,,,,,,,1.807489,3.627658,8.929923,,,,,,,,,,,,
1736664896566,,,,,,,1.797039,3.614742,8.937265,,,,,,,,,,,,
1736664896577,,,,,,,1.787612,3.606211,8.9426,,,,,,,,,,,,
1736664896586,,,,,,,1.777009,3.597697,8.948139,,,,,,,,,,,,
1736664896596,,,,,,,1.76594,3.594285,8.9517,,,,,,,,,,,,
1736664896606,,,,,,,1.751867,3.59593,8.953807,,,,,,,,,,,,
1736664896616,,,,,,,1.742794,3.592457,8.956971,,,,,,,,,,,,
1736664896626,,,,,,,1.732006,3.607239,8.953121,,,,,,,,,,,,
1736664896637,,,,,,,1.722451,3.612378,8.952892,,,,,,,,,,,,
1736664896646,,,,,,,1.709549,3.626951,8.949473,,,,,,,,,,,,
1736664896656,,,,,,,1.703152,3.634093,8.947795,,,,,,,,,,,,
1736664896667,,,,,,,1.700668,3.640592,8.945625,,,,,,,,,,,,
1736664896677,,,,,,,1.693669,3.646853,8.944405,,,,,,,,,,,,
1736664896687,,,,,,,1.696984,3.639203,8.946889,,,,,,,,,,,,
1736664896696,,,,,,,1.694783,3.641594,8.946334,,,,,,,,,,,,
1736664896707,,,,,,,1.69541,3.637338,8.947947,,,,,,,,,,,,
1736664896716,,,,,,,1.694122,3.633247,8.949853,,,,,,,,,,,,
1736664896726,,,,,,,1.682349,3.6402,8.949248,,,,,,,,,,,,
1736664896736,,,,,,,1.680953,3.640811,8.949263,,,,,,,,,,,,
1736664896747,,,,,,,1.664778,3.647032,8.949753,,,,,,,,,,,,
1736664896756,,,,,,,1.650338,3.646721,8.952553,,,,,,,,,,,,
1736664896766,,,,,,,1.64406,3.628987,8.960911,,,,,,,,,,,,
1736664896776,,,,,,,1.638397,3.621531,8.964965,,,,,,,,,,,,
1736664896787,,,,,,,1.641001,3.592302,8.976241,,,,,,,,,,,,
1736664896798,,,,,,,1.642569,3.568525,8.985435,,,,,,,,,,,,
1736664896808,,,,,,,1.646784,3.550984,8.99161,,,,,,,,,,,,
1736664896817,,,,,,,1.651068,3.532996,8.997908,,,,,,,,,,,,
1736664896828,,,,,,,1.646836,3.511192,9.007211,,,,,,,,,,,,
1736664896838,,,,,,,1.641853,3.500215,9.012392,,,,,,,,,,,,
1736664896847,,,,,,,1.633529,3.468816,9.026035,,,,,,,,,,,,
1736664896858,,,,,,,1.627019,3.448935,9.034823,,,,,,,,,,,,
1736664896867,,,,,,,1.633972,3.419319,9.044822,,,,,,,,,,,,
1736664896877,,,,,,,1.633815,3.396863,9.053306,,,,,,,,,,,,
1736664896887,,,,,,,1.663256,3.367876,9.058773,,,,,,,,,,,,
1736664896897,,,,,,,1.679313,3.343636,9.064787,,,,,,,,,,,,
1736664896907,,,,,,,1.717327,3.319136,9.066669,,,,,,,,,,,,
1736664896917,,,,,,,1.748433,3.294825,9.069593,,,,,,,,,,,,
1736664896928,,,,,,,1.78456,3.274731,9.069833,,,,,,,,,,,,
1736664896938,,,,,,,1.814184,3.256374,9.070565,,,,,,,,,,,,
1736664896947,,,,,,,1.827363,3.242592,9.072857,,,,,,,,,,,,
1736664896957,,,,,,,1.848926,3.229566,9.073134,,,,,,,,,,,,
1736664896967,,,,,,,1.846857,3.240846,9.069534,,,,,,,,,,,,
1736664896977,,,,,,,1.850085,3.242022,9.068456,,,,,,,,,,,,
1736664896988,,,,,,,1.839877,3.282874,9.055827,,,,,,,,,,,,
1736664896997,,,,,,,1.837848,3.302878,9.048965,,,,,,,,,,,,
1736664897007,,,,,,,1.827957,3.362942,9.028823,,,,,,,,,,,,
1736664897019,,,,,,,1.821812,3.402309,9.015307,,,,,,,,,,,,
1736664897028,,,,,,,1.816352,3.46427,8.992783,,,,,,,,,,,,
1736664897039,,,,,,,1.807838,3.51422,8.9751,,,,,,,,,,,,
1736664897048,,,,,,,1.800156,3.552209,8.961678,,,,,,,,,,,,
1736664897059,,,,,,,1.79027,3.597157,8.945714,,,,,,,,,,,,
1736664897069,,,,,,,1.763726,3.602069,8.949009,,,,,,,,,,,,
1736664897079,,,,,,,1.748668,3.623244,8.943416,,,,,,,,,,,,
1736664897088,,,,,,,1.719639,3.613221,8.953092,,,,,,,,,,,,
1736664897098,,,,,,,1.696344,3.612172,8.957959,,,,,,,,,,,,
1736664897108,,,,,,,1.678397,3.605152,8.964165,,,,,,,,,,,,
1736664897118,,,,,,,1.658985,3.600327,8.969715,,,,,,,,,,,,
1736664897128,,,,,,,1.662054,3.598455,8.9699,,,,,,,,,,,,
1736664897139,,,,,,,1.657052,3.597922,8.97104,,,,,,,,,,,,
1736664897148,,,,,,,1.70416,3.60965,8.957494,,,,,,,,,,,,
1736664897159,,,,,,,1.722738,3.60975,8.953898,,,,,,,,,,,,
1736664897168,,,,,,,1.801712,3.628998,8.930544,,,,,,,,,,,,
1736664897179,,,,,,,1.851942,3.644053,8.914124,,,,,,,,,,,,
1736664897188,,,,,,,1.915526,3.633755,8.904885,,,,,,,,,,,,
1736664897199,,,,,,,1.9746,3.633285,8.892168,,,,,,,,,,,,
1736664897208,,,,,,,1.984399,3.576569,8.912956,,,,,,,,,,,,
1736664897218,,,,,,,2.014146,3.54372,8.919402,,,,,,,,,,,,
1736664897228,,,,,,,2.01839,3.461345,8.950736,,,,,,,,,,,,
1736664897240,,,,,,,2.026337,3.394513,8.974504,,,,,,,,,,,,
1736664897249,,,,,,,2.035691,3.316564,9.001495,,,,,,,,,,,,
1736664897259,,,,,,,2.04248,3.244954,9.026028,,,,,,,,,,,,
1736664897270,,,,,,,2.050015,3.180069,9.047389,,,,,,,,,,,,
1736664897279,,,,,,,2.032883,3.146412,9.063009,,,,,,,,,,,,
1736664897289,,,,,,,2.0276,3.111795,9.076137,,,,,,,,,,,,
1736664897299,,,,,,,1.97631,3.118127,9.08527,,,,,,,,,,,,
1736664897310,,,,,,,1.940616,3.114165,9.094317,,,,,,,,,,,,
1736664897319,,,,,,,1.880189,3.139359,9.098346,,,,,,,,,,,,
1736664897330,,,,,,,1.83128,3.158195,9.101801,,,,,,,,,,,,
1736664897339,,,,,,,1.77665,3.195377,9.099649,,,,,,,,,,,,
1736664897349,,,,,,,1.733173,3.219408,9.099566,,,,,,,,,,,,
1736664897359,,,,,,,1.693852,3.275303,9.087013,,,,,,,,,,,,
1736664897370,,,,,,,1.661316,3.312709,9.079456,,,,,,,,,,,,
1736664897380,,,,,,,1.613555,3.374582,9.065272,,,,,,,,,,,,
1736664897390,,,,,,,1.578009,3.419882,9.054544,,,,,,,,,,,,
1736664897400,,,,,,,1.528926,3.463707,9.046302,,,,,,,,,,,,
1736664897409,,,,,,,1.484074,3.5041,9.038207,,,,,,,,,,,,
1736664897420,,,,,,,1.457042,3.519679,9.036551,,,,,,,,,,,,
1736664897429,,,,,,,1.423675,3.544145,9.032309,,,,,,,,,,,,
1736664897439,,,,,,,1.418484,3.536687,9.036046,,,,,,,,,,,,
1736664897449,,,,,,,1.405163,3.541952,9.036064,,,,,,,,,,,,
1736664897459,,,,,,,1.415321,3.527222,9.04024,,,,,,,,,,,,
1736664897470,,,,,,,1.417836,3.519919,9.042694,,,,,,,,,,,,
1736664897480,,,,,,,1.419922,3.514497,9.044477,,,,,,,,,,,,
1736664897491,,,,,,,1.427487,3.503553,9.047528,,,,,,,,,,,,
1736664897500,,,,,,,1.433395,3.513893,9.042583,,,,,,,,,,,,
1736664897510,,,,,,,1.439952,3.512487,9.042088,,,,,,,,,,,,
1736664897521,,,,,,,1.44693,3.513655,9.04052,,,,,,,,,,,,
1736664897530,,,,,,,1.453737,3.515306,9.038788,,,,,,,,,,,,
1736664897540,,,,,,,1.467147,3.501342,9.042042,,,,,,,,,,,,
1736664897551,,,,,,,1.472774,3.49221,9.044659,,,,,,,,,,,,
1736664897560,,,,,,,1.498365,3.457958,9.053611,,,,,,,,,,,,
1736664897570,,,,,,,1.513533,3.440129,9.057879,,,,,,,,,,,,
1736664897580,,,,,,,1.547438,3.399229,9.067585,,,,,,,,,,,,
1736664897590,,,,,,,1.571469,3.369233,9.074643,,,,,,,,,,,,
1736664897600,,,,,,,1.58553,3.328291,9.087298,,,,,,,,,,,,
1736664897610,,,,,,,1.60295,3.298048,9.095263,,,,,,,,,,,,
1736664897621,,,,,,,1.576772,3.261987,9.112828,,,,,,,,,,,,
1736664897631,,,,,,,1.569723,3.231208,9.125004,,,,,,,,,,,,
1736664897641,,,,,,,1.547213,3.226118,9.130646,,,,,,,,,,,,
1736664897650,,,,,,,1.527698,3.208829,9.140019,,,,,,,,,,,,
1736664897660,,,,,,,1.529679,3.241862,9.128023,,,,,,,,,,,,
1736664897670,,,,,,,1.524512,3.258012,9.123137,,,,,,,,,,,,
1736664897681,,,,,,,1.530026,3.328474,9.096741,,,,,,,,,,,,
1736664897691,,,,,,,1.531217,3.37451,9.079563,,,,,,,,,,,,
1736664897701,,,,,,,1.52448,3.45204,9.051509,,,,,,,,,,,,
1736664897711,,,,,,,1.515757,3.513024,9.029488,,,,,,,,,,,,
1736664897721,,,,,,,1.5066,3.56712,9.009791,,,,,,,,,,,,
1736664897732,,,,,,,1.496989,3.619128,8.990632,,,,,,,,,,,,
1736664897741,,,,,,,1.501124,3.617366,8.990654,,,,,,,,,,,,
1736664897751,,,,,,,1.499443,3.631952,8.985051,,,,,,,,,,,,
1736664897762,,,,,,,1.50622,3.572415,9.007759,,,,,,,,,,,,
1736664897771,,,,,,,1.512878,3.543059,9.01823,,,,,,,,,,,,
1736664897782,,,,,,,1.517649,3.461002,9.049241,,,,,,,,,,,,
1736664897791,,,,,,,1.526981,3.397829,9.071581,,,,,,,,,,,,
1736664897801,,,,,,,1.548996,3.321062,9.096244,,,,,,,,,,,,
1736664897812,,,,,,,1.56325,3.250621,9.119221,,,,,,,,,,,,
1736664897821,,,,,,,1.602775,3.223983,9.121814,,,,,,,,,,,,
1736664897831,,,,,,,1.621749,3.18903,9.130742,,,,,,,,,,,,
1736664897841,,,,,,,1.609036,3.173827,9.138292,,,,,,,,,,,,
1736664897851,,,,,,,1.602635,3.166995,9.141797,,,,,,,,,,,,
1736664897862,,,,,,,1.533355,3.166909,9.153711,,,,,,,,,,,,
1736664897871,,,,,,,1.482461,3.156726,9.16561,,,,,,,,,,,,
1736664897881,,,,,,,1.398336,3.170438,9.174099,,,,,,,,,,,,
1736664897892,,,,,,,1.331347,3.170264,9.184118,,,,,,,,,,,,
1736664897901,,,,,,,1.253096,3.163228,9.197541,,,,,,,,,,,,
1736664897911,,,,,,,1.194617,3.153814,9.208543,,,,,,,,,,,,
1736664897923,,,,,,,1.13199,3.127012,9.225576,,,,,,,,,,,,
1736664897932,,,,,,,1.091706,3.105952,9.237535,,,,,,,,,,,,
1736664897942,,,,,,,1.047927,3.101095,9.24423,,,,,,,,,,,,
1736664897952,,,,,,,1.008213,3.084649,9.254141,,,,,,,,,,,,
1736664897963,,,,,,,0.958526,3.110561,9.250744,,,,,,,,,,,,
1736664894968,,,,,,,,,,-0.5284125,-0.493625,0.258225,,,,,,,,,
1736664894978,,,,,,,,,,-0.5677375,-0.5553625,0.30827498,,,,,,,,,
1736664894988,,,,,,,,,,-0.578325,-0.5702125,0.3603875,,,,,,,,,
1736664894999,,,,,,,,,,-0.531575,-0.5383125,0.4158,,,,,,,,,
1736664895009,,,,,,,,,,-0.4538875,-0.49995,0.4541625,,,,,,,,,
1736664895019,,,,,,,,,,-0.3623125,-0.4541625,0.488125,,,,,,,,,
1736664895029,,,,,,,,,,-0.26125,-0.377575,0.5242875,,,,,,,,,
1736664895039,,,,,,,,,,-0.16225,-0.2850375,0.56374997,,,,,,,,,
1736664895049,,,,,,,,,,-0.0708125,-0.20735,0.6062375,,,,,,,,,
1736664895059,,,,,,,,,,5.5E-4,-0.132825,0.6477625,,,,,,,,,
1736664895070,,,,,,,,,,0.0495,-0.048675,0.6903875,,,,,,,,,
1736664895080,,,,,,,,,,0.0782375,0.0023375,0.7233875,,,,,,,,,
1736664895090,,,,,,,,,,0.0845625,0.012925,0.7404375,,,,,,,,,
1736664895099,,,,,,,,,,0.075075,-0.0050875,0.7308125,,,,,,,,,
1736664895109,,,,,,,,,,0.0517,-0.0221375,0.6956125,,,,,,,,,
1736664895119,,,,,,,,,,0.0207625,-0.036025,0.64033747,,,,,,,,,
1736664895130,,,,,,,,,,-0.006875,-0.0605,0.5743375,,,,,,,,,
1736664895140,,,,,,,,,,-0.0154,-0.0924,0.5083375,,,,,,,,,
1736664895150,,,,,,,,,,-0.0048125,-0.1029875,0.4477,,,,,,,,,
1736664895159,,,,,,,,,,0.0281875,-0.1018875,0.3944875,,,,,,,,,
1736664895170,,,,,,,,,,0.0804375,-0.10615,0.356125,,,,,,,,,
1736664895180,,,,,,,,,,0.1368125,-0.10835,0.33165,,,,,,,,,
1736664895189,,,,,,,,,,0.1857625,-0.082775,0.307175,,,,,,,,,
1736664895200,,,,,,,,,,0.220825,-0.0455125,0.27101249,,,,,,,,,
1736664895210,,,,,,,,,,0.23155,0.0077,0.2231625,,,,,,,,,
1736664895220,,,,,,,,,,0.205975,0.1076625,0.1656875,,,,,,,,,
1736664895231,,,,,,,,,,0.13255,0.2066625,0.10395,,,,,,,,,
1736664895240,,,,,,,,,,0.0176,0.2311375,0.0496375,,,,,,,,,
1736664895251,,,,,,,,,,-0.113299996,0.1821875,0.0114124995,,,,,,,,,
1736664895261,,,,,,,,,,-0.2325125,0.08855,-0.0067375,,,,,,,,,
1736664895270,,,,,,,,,,-0.3102,-0.0210375,-2.75E-4,,,,,,,,,
1736664895280,,,,,,,,,,-0.332475,-0.122237496,0.022,,,,,,,,,
1736664895290,,,,,,,,,,-0.300575,-0.2030875,0.047575,,,,,,,,,
1736664895300,,,,,,,,,,-0.22825,-0.214775,0.0752125,,,,,,,,,
1736664895310,,,,,,,,,,-0.1249875,-0.1689875,0.0891,,,,,,,,,
1736664895321,,,,,,,,,,-5.5E-4,-0.099825,0.0774125,,,,,,,,,
1736664895330,,,,,,,,,,0.1208625,-0.017875,0.0518375,,,,,,,,,
1736664895340,,,,,,,,,,0.220825,0.0746625,0.030524999,,,,,,,,,
1736664895351,,,,,,,,,,0.29315,0.1694,0.0177375,,,,,,,,,
1736664895361,,,,,,,,,,0.3315125,0.2545125,0.022,,,,,,,,,
1736664895370,,,,,,,,,,0.3337125,0.2864125,0.0422125,,,,,,,,,
1736664895381,,,,,,,,,,0.29535,0.2704625,0.07095,,,,,,,,,
1736664895391,,,,,,,,,,0.2123,0.225775,0.094325,,,,,,,,,
1736664895400,,,,,,,,,,0.088825,0.1566125,0.1093125,,,,,,,,,
1736664895410,,,,,,,,,,-0.0495,0.0694375,0.1093125,,,,,,,,,
1736664895420,,,,,,,,,,-0.1750375,-0.053075,0.0911625,,,,,,,,,
1736664895430,,,,,,,,,,-0.2644125,-0.1700875,0.0572,,,,,,,,,
1736664895440,,,,,,,,,,-0.3070375,-0.2520375,0.0166375,,,,,,,,,
1736664895452,,,,,,,,,,-0.2825625,-0.3106125,-0.016224999,,,,,,,,,
1736664895461,,,,,,,,,,-0.203775,-0.3350875,-0.0397375,,,,,,,,,
1736664895471,,,,,,,,,,-0.089925,-0.3095125,-0.050325,,,,,,,,,
1736664895481,,,,,,,,,,0.039875,-0.2446125,-0.0364375,,,,,,,,,
1736664895491,,,,,,,,,,0.16335,-0.1593625,-0.0078375,,,,,,,,,
1736664895501,,,,,,,,,,0.268675,-0.082775,0.0273625,,,,,,,,,
1736664895512,,,,,,,,,,0.3443,-0.036025,0.046475,,,,,,,,,
1736664895521,,,,,,,,,,0.3804625,-0.0275,0.0433125,,,,,,,,,
1736664895531,,,,,,,,,,0.36987498,-0.0306625,0.0209,,,,,,,,,
1736664895542,,,,,,,,,,0.3240875,-0.0253,-0.0056375,,,,,,,,,
1736664895551,,,,,,,,,,0.2495625,-0.033825,-0.0204875,,,,,,,,,
1736664895561,,,,,,,,,,0.157025,-0.049775,-2.75E-4,,,,,,,,,
1736664895571,,,,,,,,,,0.058025,-0.0605,0.0518375,,,,,,,,,
1736664895582,,,,,,,,,,-0.0281875,-0.081675,0.1230625,,,,,,,,,
1736664895591,,,,,,,,,,-0.087725,-0.120037496,0.1827375,,,,,,,,,
1736664895601,,,,,,,,,,-0.1144,-0.1764125,0.2146375,,,,,,,,,
1736664895612,,,,,,,,,,-0.1101375,-0.2275625,0.21573749,,,,,,,,,
1736664895622,,,,,,,,,,-0.087725,-0.230725,0.1986875,,,,,,,,,
1736664895632,,,,,,,,,,-0.0697125,-0.1678875,0.176275,,,,,,,,,
1736664895641,,,,,,,,,,-0.056925,-0.0636625,0.1656875,,,,,,,,,
1736664895651,,,,,,,,,,-0.0495,0.0246125,0.1731125,,,,,,,,,
1736664895661,,,,,,,,,,-0.0515625,0.0672375,0.20075,,,,,,,,,
1736664895672,,,,,,,,,,-0.0600875,0.078925,0.2391125,,,,,,,,,
1736664895683,,,,,,,,,,-0.0760375,0.0490875,0.274175,,,,,,,,,
1736664895692,,,,,,,,,,-0.087725,-0.01045,0.293425,,,,,,,,,
1736664895703,,,,,,,,,,-0.087725,-0.0647625,0.286,,,,,,,,,
1736664895713,,,,,,,,,,-0.073975,-0.0935,0.2624875,,,,,,,,,
1736664895722,,,,,,,,,,-0.042075,-0.0944625,0.227425,,,,,,,,,
1736664895732,,,,,,,,,,0.0037125,-0.066825,0.195525,,,,,,,,,
1736664895742,,,,,,,,,,0.056925,-0.020075,0.1816375,,,,,,,,,
1736664895753,,,,,,,,,,0.105875,0.0268125,0.1881,,,,,,,,,
1736664895763,,,,,,,,,,0.14739999,0.061875,0.2211,,,,,,,,,
1736664895772,,,,,,,,,,0.1815,0.078925,0.2646875,,,,,,,,,
1736664895782,,,,,,,,,,0.2017125,0.0853875,0.3114375,,,,,,,,,
1736664895792,,,,,,,,,,0.2134,0.0853875,0.3518625,,,,,,,,,
1736664895802,,,,,,,,,,0.2187625,0.077825,0.3796375,,,,,,,,,
1736664895812,,,,,,,,,,0.2145,0.054449998,0.39875,,,,,,,,,
1736664895823,,,,,,,,,,0.19855,0.0342375,0.4019125,,,,,,,,,
1736664895832,,,,,,,,,,0.1698125,0.0449625,0.39765,,,,,,,,,
1736664895842,,,,,,,,,,0.1293875,0.0683375,0.389125,,,,,,,,,
1736664895853,,,,,,,,,,0.0803,0.1065625,0.3711125,,,,,,,,,
1736664895863,,,,,,,,,,0.0270875,0.1577125,0.3498,,,,,,,,,
1736664895872,,,,,,,,,,-0.0270875,0.161975,0.3306875,,,,,,,,,
1736664895882,,,,,,,,,,-0.0686125,0.1236125,0.309375,,,,,,,,,
1736664895893,,,,,,,,,,-0.082499996,0.062975,0.2817375,,,,,,,,,
1736664895904,,,,,,,,,,-0.0622875,0.0044,0.2454375,,,,,,,,,
1736664895913,,,,,,,,,,-0.0154,-0.00825,0.20185,,,,,,,,,
1736664895924,,,,,,,,,,0.0484,0.012925,0.154,,,,,,,,,
1736664895933,,,,,,,,,,0.1175625,0.0576125,0.115637496,,,,,,,,,
1736664895943,,,,,,,,,,0.1793,0.113025,0.086899996,,,,,,,,,
1736664895953,,,,,,,,,,0.2250875,0.1375,0.063525,,,,,,,,,
1736664895964,,,,,,,,,,0.2517625,0.1150875,0.045375,,,,,,,,,
1736664895974,,,,,,,,,,0.2580875,0.0683375,0.0199375,,,,,,,,,
1736664895983,,,,,,,,,,0.2517625,0.0012375,-0.0121,,,,,,,,,
1736664895993,,,,,,,,,,0.238975,-0.0807125,-0.0471625,,,,,,,,,
1736664896003,,,,,,,,,,0.223025,-0.1584,-0.0790625,,,,,,,,,
1736664896014,,,,,,,,,,0.20487499,-0.20735,-0.099275,,,,,,,,,
1736664896023,,,,,,,,,,0.1835625,-0.1956625,-0.102437496,,,,,,,,,
1736664896033,,,,,,,,,,0.1590875,-0.163625,-0.083325,,,,,,,,,
1736664896044,,,,,,,,,,0.13035,-0.1573,-0.05775,,,,,,,,,
1736664896053,,,,,,,,,,0.0941875,-0.1700875,-0.0301125,,,,,,,,,
1736664896063,,,,,,,,,,0.0474375,-0.1126125,0.0188375,,,,,,,,,
1736664896074,,,,,,,,,,-0.009075,-0.0402875,0.0666875,,,,,,,,,
1736664896083,,,,,,,,,,-0.0600875,-0.013612499,0.096525,,,,,,,,,
1736664896094,,,,,,,,,,-0.1079375,-0.0050875,0.1071125,,,,,,,,,
1736664896104,,,,,,,,,,-0.1505625,-0.0061875,0.1007875,,,,,,,,,
1736664896113,,,,,,,,,,-0.1909875,-0.0158125,0.0911625,,,,,,,,,
1736664896124,,,,,,,,,,-0.22715,-0.01155,0.0763125,,,,,,,,,
1736664896134,,,,,,,,,,-0.2591875,0.0086624995,0.0655875,,,,,,,,,
1736664896145,,,,,,,,,,-0.2825625,0.0385,0.0572,,,,,,,,,
1736664896155,,,,,,,,,,-0.29205,0.0587125,0.0433125,,,,,,,,,
1736664896165,,,,,,,,,,-0.2803625,0.05335,0.0284625,,,,,,,,,
1736664896175,,,,,,,,,,-0.253825,0.0427625,0.012375,,,,,,,,,
1736664896185,,,,,,,,,,-0.2228875,0.015125,-0.0045375,,,,,,,,,
1736664896194,,,,,,,,,,-0.1804,-0.0232375,-0.018424999,,,,,,,,,
1736664896204,,,,,,,,,,-0.137775,-0.050875,-0.02805,,,,,,,,,
1736664896214,,,,,,,,,,-0.0834625,-0.0902,-0.0323125,,,,,,,,,
1736664896224,,,,,,,,,,-0.0270875,-0.099825,-0.0301125,,,,,,,,,
1736664896234,,,,,,,,,,0.0229625,-0.082775,-0.019524999,,,,,,,,,
1736664896244,,,,,,,,,,0.059125,-0.0636625,0.0028875,,,,,,,,,
1736664896254,,,,,,,,,,0.0760375,-0.049775,0.029424999,,,,,,,,,
1736664896265,,,,,,,,,,0.072875,-0.0551375,0.048675,,,,,,,,,
1736664896275,,,,,,,,,,0.0548625,-0.07425,0.0581625,,,,,,,,,
1736664896284,,,,,,,,,,0.023924999,-0.0902,0.055,,,,,,,,,
1736664896294,,,,,,,,,,-0.009075,-0.0944625,0.047575,,,,,,,,,
1736664896304,,,,,,,,,,-0.038775,-0.0859375,0.032725,,,,,,,,,
1736664896314,,,,,,,,,,-0.0622875,-0.066825,0.0177375,,,,,,,,,
1736664896324,,,,,,,,,,-0.072875,-0.0306625,0.00605,,,,,,,,,
1736664896334,,,,,,,,,,-0.0708125,0.0077,-0.0045375,,,,,,,,,
1736664896346,,,,,,,,,,-0.054725,0.031075,-0.018424999,,,,,,,,,
1736664896355,,,,,,,,,,-0.0356125,0.0523875,-0.034375,,,,,,,,,
1736664896366,,,,,,,,,,-0.022824999,0.0576125,-0.0534875,,,,,,,,,
1736664896375,,,,,,,,,,-0.0176,0.0396,-0.0727375,,,,,,,,,
1736664896385,,,,,,,,,,-0.0165,0.0012375,-0.085525,,,,,,,,,
1736664896395,,,,,,,,,,-0.0185625,-0.0573375,-0.09185,,,,,,,,,
1736664896405,,,,,,,,,,-0.0196625,-0.1211375,-0.0950125,,,,,,,,,
1736664896415,,,,,,,,,,-0.0207625,-0.168025,-0.0950125,,,,,,,,,
1736664896426,,,,,,,,,,-0.0196625,-0.1903,-0.09295,,,,,,,,,
1736664896435,,,,,,,,,,-0.0165,-0.17215,-0.084425,,,,,,,,,
1736664896446,,,,,,,,,,-0.009075,-0.116875,-0.067375,,,,,,,,,
1736664896456,,,,,,,,,,0.007975,-0.0551375,-0.0460625,,,,,,,,,
1736664896465,,,,,,,,,,0.022824999,-0.0083875,-0.019524999,,,,,,,,,
1736664896476,,,,,,,,,,0.03355,0.0268125,0.0028875,,,,,,,,,
1736664896485,,,,,,,,,,0.034649998,0.044825,0.012375,,,,,,,,,
1736664896495,,,,,,,,,,0.0218625,0.0385,0.0081124995,,,,,,,,,
1736664896506,,,,,,,,,,0.0026125,0.011825,-0.0067375,,,,,,,,,
1736664896516,,,,,,,,,,-0.023924999,-0.016775,-0.02585,,,,,,,,,
1736664896525,,,,,,,,,,-0.0473,-0.04455,-0.0449625,,,,,,,,,
1736664896536,,,,,,,,,,-0.06655,-0.0625625,-0.05995,,,,,,,,,
1736664896545,,,,,,,,,,-0.073975,-0.0721875,-0.066275,,,,,,,,,
1736664896555,,,,,,,,,,-0.0708125,-0.0605,-0.068475,,,,,,,,,
1736664896566,,,,,,,,,,-0.056925,-0.0264,-0.0653125,,,,,,,,,
1736664896576,,,,,,,,,,-0.03355,1.375E-4,-0.05775,,,,,,,,,
1736664896586,,,,,,,,,,-0.0026125,0.0108624995,-0.0534875,,,,,,,,,
1736664896596,,,,,,,,,,0.025024999,0.0097624995,-0.0556875,,,,,,,,,
1736664896606,,,,,,,,,,0.042075,1.375E-4,-0.058849998,,,,,,,,,
1736664896616,,,,,,,,,,0.040975,-0.01265,-0.0620125,,,,,,,,,
1736664896626,,,,,,,,,,0.023924999,-0.0158125,-0.061049998,,,,,,,,,
1736664896636,,,,,,,,,,-0.00165,-0.013612499,-0.0556875,,,,,,,,,
1736664896646,,,,,,,,,,-0.032449998,-0.0286,-0.044,,,,,,,,,
1736664896656,,,,,,,,,,-0.0589875,-0.053075,-0.0290125,,,,,,,,,
1736664896666,,,,,,,,,,-0.0760375,-0.0658625,-0.015262499,,,,,,,,,
1736664896676,,,,,,,,,,-0.0845625,-0.053075,-0.001375,,,,,,,,,
1736664896686,,,,,,,,,,-0.073975,-0.0328625,0.0039875,,,,,,,,,
1736664896696,,,,,,,,,,-0.0537625,-0.014712499,6.875E-4,,,,,,,,,
1736664896706,,,,,,,,,,-0.0303875,0.0097624995,-0.0078375,,,,,,,,,
1736664896717,,,,,,,,,,-0.0111375,0.0268125,-0.014162499,,,,,,,,,
1736664896727,,,,,,,,,,-0.0037125,0.029975,-0.014162499,,,,,,,,,
1736664896736,,,,,,,,,,-0.0185625,0.0268125,-0.003575,,,,,,,,,
1736664896746,,,,,,,,,,-0.0484,0.0279125,0.0166375,,,,,,,,,
1736664896756,,,,,,,,,,-0.0867625,0.0353375,0.036849998,,,,,,,,,
1736664896767,,,,,,,,,,-0.1175625,0.0342375,0.0507375,,,,,,,,,
1736664896776,,,,,,,,,,-0.1346125,0.0077,0.0529375,,,,,,,,,
1736664896786,,,,,,,,,,-0.136675,-0.036025,0.047575,,,,,,,,,
1736664896797,,,,,,,,,,-0.13255,-0.0562375,0.0422125,,,,,,,,,
1736664896807,,,,,,,,,,-0.121825,-0.0551375,0.0422125,,,,,,,,,
1736664896818,,,,,,,,,,-0.1027125,-0.04455,0.046475,,,,,,,,,
1736664896827,,,,,,,,,,-0.0856625,-0.0061875,0.048675,,,,,,,,,
1736664896837,,,,,,,,,,-0.0697125,0.0331375,0.055,,,,,,,,,
1736664896848,,,,,,,,,,-0.042075,0.0416625,0.0592625,,,,,,,,,
1736664896858,,,,,,,,,,-0.0143,0.028875,0.0603625,,,,,,,,,
1736664896868,,,,,,,,,,0.0037125,0.02035,0.062425,,,,,,,,,
1736664896877,,,,,,,,,,0.0185625,0.0075625,0.063525,,,,,,,,,
1736664896887,,,,,,,,,,0.0218625,-0.01155,0.0539,,,,,,,,,
1736664896897,,,,,,,,,,0.0154,-0.0221375,0.039049998,,,,,,,,,
1736664896907,,,,,,,,,,0.0037125,-0.0306625,0.0199375,,,,,,,,,
1736664896917,,,,,,,,,,-0.0059125,-0.0306625,-0.002475,,,,,,,,,
1736664896927,,,,,,,,,,-0.0185625,-0.0221375,-0.0237875,,,,,,,,,
1736664896937,,,,,,,,,,-0.025024999,-0.01265,-0.0460625,,,,,,,,,
1736664896948,,,,,,,,,,-0.0196625,0.0023375,-0.068475,,,,,,,,,
1736664896957,,,,,,,,,,-0.0026125,0.0160875,-0.09185,,,,,,,,,
1736664896967,,,,,,,,,,0.0207625,-0.0061875,-0.1057375,,,,,,,,,
1736664896977,,,,,,,,,,0.0356125,-0.0306625,-0.117425,,,,,,,,,
1736664896987,,,,,,,,,,0.034649998,-0.04455,-0.1291125,,,,,,,,,
1736664896997,,,,,,,,,,0.0165,-0.070125,-0.132275,,,,,,,,,
1736664897008,,,,,,,,,,-0.0133375,-0.0966625,-0.12595,,,,,,,,,
1736664897018,,,,,,,,,,-0.0430375,-0.1029875,-0.11,,,,,,,,,
1736664897028,,,,,,,,,,-0.0675125,-0.087037496,-0.084425,,,,,,,,,
1736664897039,,,,,,,,,,-0.0782375,-0.0573375,-0.0567875,,,,,,,,,
1736664897048,,,,,,,,,,-0.0793375,-0.0232375,-0.033275,,,,,,,,,
1736664897059,,,,,,,,,,-0.072875,0.012925,-0.018424999,,,,,,,,,
1736664897068,,,,,,,,,,-0.0622875,0.044825,-0.013062499,,,,,,,,,
1736664897078,,,,,,,,,,-0.0452375,0.05555,-0.0088,,,,,,,,,
1736664897089,,,,,,,,,,-0.0185625,0.0427625,-0.003575,,,,,,,,,
1736664897098,,,,,,,,,,0.0133375,0.012925,6.875E-4,,,,,,,,,
1736664897108,,,,,,,,,,0.0367125,0.0012375,0.00715,,,,,,,,,
1736664897118,,,,,,,,,,0.0548625,0.0066,0.0188375,,,,,,,,,
1736664897128,,,,,,,,,,0.0708125,0.0044,0.031625,,,,,,,,,
1736664897138,,,,,,,,,,0.082499996,-0.014712499,0.047575,,,,,,,,,
1736664897148,,,,,,,,,,0.0845625,-0.0169125,0.0592625,,,,,,,,,
1736664897159,,,,,,,,,,0.0814,0.014025,0.0655875,,,,,,,,,
1736664897169,,,,,,,,,,0.0708125,0.0363,0.063525,,,,,,,,,
1736664897178,,,,,,,,,,0.0463375,0.0726,0.048675,,,,,,,,,
1736664897188,,,,,,,,,,0.0048125,0.12155,0.0262625,,,,,,,,,
1736664897199,,,,,,,,,,-0.0484,0.15455,0.00385,,,,,,,,,
1736664897208,,,,,,,,,,-0.0941875,0.160875,-0.015262499,,,,,,,,,
1736664897219,,,,,,,,,,-0.1271875,0.1236125,-0.033275,,,,,,,,,
1736664897228,,,,,,,,,,-0.157025,0.056649998,-0.0556875,,,,,,,,,
1736664897240,,,,,,,,,,-0.17613749,-0.0061875,-0.0875875,,,,,,,,,
1736664897249,,,,,,,,,,-0.1835625,-0.0562375,-0.133375,,,,,,,,,
1736664897259,,,,,,,,,,-0.1772375,-0.0785125,-0.1876875,,,,,,,,,
1736664897269,,,,,,,,,,-0.155925,-0.0807125,-0.2409,,,,,,,,,
1736664897279,,,,,,,,,,-0.1155,-0.0710875,-0.2833875,,,,,,,,,
1736664897289,,,,,,,,,,-0.06435,-0.0488125,-0.3100625,,,,,,,,,
1736664897299,,,,,,,,,,-0.0207625,-0.018975,-0.31955,,,,,,,,,
1736664897309,,,,,,,,,,0.0122375,0.011825,-0.313225,,,,,,,,,
1736664897320,,,,,,,,,,0.0367125,0.0353375,-0.30153748,,,,,,,,,
1736664897330,,,,,,,,,,0.0495,0.0257125,-0.2930125,,,,,,,,,
1736664897340,,,,,,,,,,0.0548625,-0.01045,-0.28655,,,,,,,,,
1736664897349,,,,,,,,,,0.0526625,-0.0583,-0.2781625,,,,,,,,,
1736664897360,,,,,,,,,,0.042075,-0.0924,-0.2674375,,,,,,,,,
1736664897369,,,,,,,,,,0.022824999,-0.1040875,-0.2503875,,,,,,,,,
1736664897380,,,,,,,,,,0.0026125,-0.091299996,-0.2206875,,,,,,,,,
1736664897390,,,,,,,,,,-0.0196625,-0.069025,-0.181225,,,,,,,,,
1736664897399,,,,,,,,,,-0.0378125,-0.0477125,-0.132275,,,,,,,,,
1736664897410,,,,,,,,,,-0.0537625,-0.0221375,-0.084425,,,,,,,,,
1736664897420,,,,,,,,,,-0.0622875,-0.0072875,-0.0460625,,,,,,,,,
1736664897429,,,,,,,,,,-0.059125,-0.003025,-0.017324999,,,,,,,,,
1736664897439,,,,,,,,,,-0.0473,-8.25E-4,6.875E-4,,,,,,,,,
1736664897449,,,,,,,,,,-0.026124999,0.0086624995,0.00605,,,,,,,,,
1736664897459,,,,,,,,,,-0.0026125,0.0246125,0.00495,,,,,,,,,
1736664897471,,,,,,,,,,0.0196625,0.0427625,-0.0045375,,,,,,,,,
1736664897481,,,,,,,,,,0.0281875,0.0512875,-0.015262499,,,,,,,,,
1736664897490,,,,,,,,,,0.023924999,0.0374,-0.015262499,,,,,,,,,
1736664897501,,,,,,,,,,0.006875,0.0086624995,-0.0078375,,,,,,,,,
1736664897510,,,,,,,,,,-0.025024999,-0.0061875,0.0081124995,,,,,,,,,
1736664897520,,,,,,,,,,-0.0611875,-0.001925,0.028324999,,,,,,,,,
1736664897530,,,,,,,,,,-0.09735,0.0108624995,0.048675,,,,,,,,,
1736664897540,,,,,,,,,,-0.121825,0.0193875,0.0688875,,,,,,,,,
1736664897551,,,,,,,,,,-0.13255,0.0331375,0.088,,,,,,,,,
1736664897560,,,,,,,,,,-0.1368125,0.0438625,0.096525,,,,,,,,,
1736664897571,,,,,,,,,,-0.1249875,0.0385,0.0900625,,,,,,,,,
1736664897580,,,,,,,,,,-0.1016125,0.0279125,0.07315,,,,,,,,,
1736664897590,,,,,,,,,,-0.0803,0.0363,0.048675,,,,,,,,,
1736664897600,,,,,,,,,,-0.0622875,0.0683375,0.0177375,,,,,,,,,
1736664897610,,,,,,,,,,-0.0473,0.0928125,-0.013062499,,,,,,,,,
1736664897621,,,,,,,,,,-0.0378125,0.110825,-0.035475,,,,,,,,,
1736664897630,,,,,,,,,,-0.0303875,0.100237496,-0.0471625,,,,,,,,,
1736664897641,,,,,,,,,,-0.0185625,0.05335,-0.0482625,,,,,,,,,
1736664897651,,,,,,,,,,0.0026125,0.0012375,-0.050325,,,,,,,,,
1736664897661,,,,,,,,,,0.0303875,-0.0380875,-0.0567875,,,,,,,,,
1736664897670,,,,,,,,,,0.058025,-0.0466125,-0.0567875,,,,,,,,,
1736664897681,,,,,,,,,,0.073975,-0.01265,-0.0451,,,,,,,,,
1736664897691,,,,,,,,,,0.0836,0.0512875,-0.020624999,,,,,,,,,
1736664897701,,,,,,,,,,0.0782375,0.12045,0.014575,,,,,,,,,
1736664897712,,,,,,,,,,0.058025,0.176825,0.0581625,,,,,,,,,
1736664897721,,,,,,,,,,0.025024999,0.2151875,0.1060125,,,,,,,,,
1736664897731,,,,,,,,,,-0.023924999,0.2363625,0.1423125,,,,,,,,,
1736664897741,,,,,,,,,,-0.0771375,0.2332,0.16885,,,,,,,,,
1736664897752,,,,,,,,,,-0.1249875,0.224675,0.177375,,,,,,,,,
1736664897761,,,,,,,,,,-0.1676125,0.2151875,0.17105,,,,,,,,,
1736664897772,,,,,,,,,,-0.19745,0.2013,0.1518,,,,,,,,,
1736664897782,,,,,,,,,,-0.2145,0.176825,0.128425,,,,,,,,,
1736664897791,,,,,,,,,,-0.2145,0.1247125,0.1018875,,,,,,,,,
1736664897801,,,,,,,,,,-0.2017125,0.0576125,0.0603625,,,,,,,,,
1736664897811,,,,,,,,,,-0.1782,0.0097624995,0.022,,,,,,,,,
1736664897821,,,,,,,,,,-0.1452,0.015125,-0.0088,,,,,,,,,
1736664897831,,,,,,,,,,-0.109037496,0.1034,-0.036575,,,,,,,,,
1736664897842,,,,,,,,,,-0.071775,0.240625,-0.0620125,,,,,,,,,
1736664897851,,,,,,,,,,-0.0367125,0.3641,-0.082225,,,,,,,,,
1736664897861,,,,,,,,,,-0.0207625,0.44825,-0.0875875,,,,,,,,,
1736664897872,,,,,,,,,,-0.034649998,0.4972,-0.0864875,,,,,,,,,
1736664897881,,,,,,,,,,-0.0782375,0.521675,-0.0779625,,,,,,,,,
1736664897892,,,,,,,,,,-0.138875,0.5066875,-0.069575,,,,,,,,,
1736664897902,,,,,,,,,,-0.20693749,0.454575,-0.066275,,,,,,,,,
1736664897912,,,,,,,,,,-0.27513748,0.3683625,-0.066275,,,,,,,,,
1736664897922,,,,,,,,,,-0.3229875,0.2662,-0.0727375,,,,,,,,,
1736664897933,,,,,,,,,,-0.3389375,0.176825,-0.0748,,,,,,,,,
1736664897942,,,,,,,,,,-0.32615,0.1076625,-0.067375,,,,,,,,,
1736664897952,,,,,,,,,,-0.29741248,0.1076625,-0.052525,,,,,,,,,
1736664897962,,,,,,,,,,-0.2591875,0.1799875,-0.0323125,,,,,,,,,
1736664894969,,,,,,,,,,,,,-0.535602,0.721539,-0.109789,,,,,,
1736664894979,,,,,,,,,,,,,-0.632389,0.803108,-0.179739,,,,,,
1736664894988,,,,,,,,,,,,,-0.549867,0.537989,0.233272,,,,,,
1736664895000,,,,,,,,,,,,,-0.687673,0.650905,0.017203,,,,,,
1736664895010,,,,,,,,,,,,,-0.361582,0.445253,0.407924,,,,,,
1736664895019,,,,,,,,,,,,,-0.459197,0.484779,0.298557,,,,,,
1736664895029,,,,,,,,,,,,,-0.31582,0.31545,0.433073,,,,,,
1736664895040,,,,,,,,,,,,,-0.412491,0.389506,0.381857,,,,,,
1736664895049,,,,,,,,,,,,,-0.180582,0.025454,0.269892,,,,,,
1736664895059,,,,,,,,,,,,,-0.281863,0.172039,0.363388,,,,,,
1736664895069,,,,,,,,,,,,,0.098616,-0.379036,0.307807,,,,,,
1736664895080,,,,,,,,,,,,,-0.110305,-0.106312,0.286402,,,,,,
1736664895089,,,,,,,,,,,,,0.547669,-0.939854,0.168808,,,,,,
1736664895099,,,,,,,,,,,,,0.182445,-0.615719,0.201827,,,,,,
1736664895110,,,,,,,,,,,,,0.732294,-1.184149,0.182425,,,,,,
1736664895120,,,,,,,,,,,,,0.483654,-0.941004,0.044282,,,,,,
1736664895129,,,,,,,,,,,,,0.789078,-1.086871,0.312661,,,,,,
1736664895139,,,,,,,,,,,,,0.592162,-0.992836,0.194141,,,,,,
1736664895149,,,,,,,,,,,,,0.746668,-0.937355,0.391302,,,,,,
1736664895159,,,,,,,,,,,,,0.572907,-0.873414,0.286557,,,,,,
1736664895169,,,,,,,,,,,,,0.980326,-0.703399,0.130861,,,,,,
1736664895179,,,,,,,,,,,,,0.652392,-0.679723,0.286526,,,,,,
1736664895189,,,,,,,,,,,,,1.196645,-0.776544,-0.431207,,,,,,
1736664895199,,,,,,,,,,,,,0.854372,-0.670028,-0.132245,,,,,,
1736664895210,,,,,,,,,,,,,1.2205,-0.636762,-0.813867,,,,,,
1736664895220,,,,,,,,,,,,,1.055,-0.721962,-0.739855,,,,,,
1736664895230,,,,,,,,,,,,,0.771501,-0.258538,-0.176223,,,,,,
1736664895240,,,,,,,,,,,,,0.878142,-0.425918,-0.569577,,,,,,
1736664895250,,,,,,,,,,,,,0.34341,-0.016254,0.717242,,,,,,
1736664895260,,,,,,,,,,,,,0.492594,-0.077,0.268429,,,,,,
1736664895270,,,,,,,,,,,,,0.219209,-0.092113,1.241158,,,,,,
1736664895281,,,,,,,,,,,,,0.15051,0.110336,0.999468,,,,,,
1736664895291,,,,,,,,,,,,,0.708868,-0.09215,1.16873,,,,,,
1736664895300,,,,,,,,,,,,,0.308726,0.028822,1.185315,,,,,,
1736664895310,,,,,,,,,,,,,1.052672,-0.251134,0.920558,,,,,,
1736664895320,,,,,,,,,,,,,0.779296,-0.05744,1.043064,,,,,,
1736664895330,,,,,,,,,,,,,0.909714,-0.307519,0.505096,,,,,,
1736664895340,,,,,,,,,,,,,0.889098,-0.236206,0.722338,,,,,,
1736664895350,,,,,,,,,,,,,0.577052,-0.36536,0.324973,,,,,,
1736664895360,,,,,,,,,,,,,0.698269,-0.320933,0.358606,,,,,,
1736664895370,,,,,,,,,,,,,0.180277,-0.460943,0.145344,,,,,,
1736664895381,,,,,,,,,,,,,0.379879,-0.338043,0.274805,,,,,,
1736664895390,,,,,,,,,,,,,-0.005406,-0.754843,0.030932,,,,,,
1736664895400,,,,,,,,,,,,,0.048437,-0.544407,0.006379,,,,,,
1736664895411,,,,,,,,,,,,,0.175592,-0.70559,0.424271,,,,,,
1736664895420,,,,,,,,,,,,,0.044841,-0.648809,0.198482,,,,,,
1736664895431,,,,,,,,,,,,,0.350926,-0.380822,0.841144,,,,,,
1736664895440,,,,,,,,,,,,,0.219863,-0.408579,0.558141,,,,,,
1736664895451,,,,,,,,,,,,,0.158408,-0.112783,0.850087,,,,,,
1736664895462,,,,,,,,,,,,,0.241526,-0.102043,0.916883,,,,,,
1736664895471,,,,,,,,,,,,,0.010393,-0.00102,0.420361,,,,,,
1736664895482,,,,,,,,,,,,,0.01052,-0.007216,0.636899,,,,,,
1736664895491,,,,,,,,,,,,,0.255064,0.026335,-0.010766,,,,,,
1736664895501,,,,,,,,,,,,,0.040388,-0.011534,0.220712,,,,,,
1736664895511,,,,,,,,,,,,,0.542934,-0.019392,-0.534251,,,,,,
1736664895522,,,,,,,,,,,,,0.382592,-0.054398,-0.178395,,,,,,
1736664895532,,,,,,,,,,,,,0.276646,-0.079612,-0.967218,,,,,,
1736664895541,,,,,,,,,,,,,0.41987,-0.164184,-0.746106,,,,,,
1736664895552,,,,,,,,,,,,,-0.396564,0.02552,-0.941492,,,,,,
1736664895561,,,,,,,,,,,,,-0.109887,-0.12988,-0.996116,,,,,,
1736664895572,,,,,,,,,,,,,-0.430658,0.110923,-0.408308,,,,,,
1736664895581,,,,,,,,,,,,,-0.468137,0.064764,-0.688714,,,,,,
1736664895592,,,,,,,,,,,,,-0.020517,-0.080461,-0.053818,,,,,,
1736664895601,,,,,,,,,,,,,-0.248849,0.019925,-0.17099,,,,,,
1736664895611,,,,,,,,,,,,,0.273591,-0.105201,-0.427663,,,,,,
1736664895621,,,,,,,,,,,,,0.12227,-0.076015,-0.167889,,,,,,
1736664895631,,,,,,,,,,,,,-0.077044,-0.061734,-0.464159,,,,,,
1736664895641,,,,,,,,,,,,,0.092581,-0.087704,-0.564606,,,,,,
1736664895651,,,,,,,,,,,,,-0.419421,0.082465,0.045644,,,,,,
1736664895661,,,,,,,,,,,,,-0.28589,0.006952,-0.208939,,,,,,
1736664895673,,,,,,,,,,,,,-0.258324,0.033283,0.528146,,,,,,
1736664895683,,,,,,,,,,,,,-0.308475,0.138367,0.300225,,,,,,
1736664895692,,,,,,,,,,,,,0.036852,-0.21416,0.532474,,,,,,
1736664895703,,,,,,,,,,,,,-0.084356,-0.059374,0.546581,,,,,,
1736664895712,,,,,,,,,,,,,0.15512,-0.11206,0.441558,,,,,,
1736664895723,,,,,,,,,,,,,0.09487,-0.146523,0.494236,,,,,,
1736664895733,,,,,,,,,,,,,-0.195792,0.116918,0.318164,,,,,,
1736664895742,,,,,,,,,,,,,0.021443,0.012401,0.364498,,,,,,
1736664895753,,,,,,,,,,,,,-0.432924,0.356496,0.220157,,,,,,
1736664895762,,,,,,,,,,,,,-0.305516,0.222743,0.285473,,,,,,
1736664895773,,,,,,,,,,,,,-0.25751,0.472588,0.074314,,,,,,
1736664895783,,,,,,,,,,,,,-0.335729,0.364665,0.167613,,,,,,
1736664895792,,,,,,,,,,,,,0.051379,0.288207,-0.080908,,,,,,
1736664895802,,,,,,,,,,,,,-0.094148,0.315816,0.036774,,,,,,
1736664895813,,,,,,,,,,,,,0.312303,0.062131,-0.441724,,,,,,
1736664895822,,,,,,,,,,,,,0.12322,0.112841,-0.184438,,,,,,
1736664895832,,,,,,,,,,,,,0.480057,0.031998,-0.622614,,,,,,
1736664895842,,,,,,,,,,,,,0.355172,0.01308,-0.507045,,,,,,
1736664895852,,,,,,,,,,,,,0.297215,0.02409,-0.357015,,,,,,
1736664895863,,,,,,,,,,,,,0.312177,0.004386,-0.597922,,,,,,
1736664895872,,,,,,,,,,,,,0.271649,-0.020746,0.323898,,,,,,
1736664895882,,,,,,,,,,,,,0.231964,-0.006365,-0.002237,,,,,,
1736664895894,,,,,,,,,,,,,0.338635,-0.020039,0.579181,,,,,,
1736664895903,,,,,,,,,,,,,0.282597,0.068358,0.540981,,,,,,
1736664895913,,,,,,,,,,,,,0.183341,-0.006898,0.511254,,,,,,
1736664895924,,,,,,,,,,,,,0.269184,-0.008132,0.556731,,,,,,
1736664895934,,,,,,,,,,,,,-0.133937,-0.012432,0.436713,,,,,,
1736664895943,,,,,,,,,,,,,0.037094,0.005801,0.451227,,,,,,
1736664895954,,,,,,,,,,,,,-0.23788,0.031342,0.304631,,,,,,
1736664895963,,,,,,,,,,,,,-0.166558,-0.034308,0.42081,,,,,,
1736664895973,,,,,,,,,,,,,-0.110275,0.242316,-0.019137,,,,,,
1736664895983,,,,,,,,,,,,,-0.178676,0.044281,0.161562,,,,,,
1736664895994,,,,,,,,,,,,,-0.054571,0.548447,-0.536605,,,,,,
1736664896003,,,,,,,,,,,,,-0.095675,0.294278,-0.180847,,,,,,
1736664896013,,,,,,,,,,,,,-0.223729,0.799195,-1.048795,,,,,,
1736664896024,,,,,,,,,,,,,-0.125132,0.50962,-0.760228,,,,,,
1736664896033,,,,,,,,,,,,,-0.365034,0.567019,-1.034647,,,,,,
1736664896043,,,,,,,,,,,,,-0.331735,0.46475,-0.997504,,,,,,
1736664896053,,,,,,,,,,,,,-0.312971,0.526246,-1.239054,,,,,,
1736664896063,,,,,,,,,,,,,-0.30094,0.566519,-1.132787,,,,,,
1736664896073,,,,,,,,,,,,,-0.161237,0.211631,-0.824064,,,,,,
1736664896084,,,,,,,,,,,,,-0.272277,0.253021,-0.975962,,,,,,
1736664896094,,,,,,,,,,,,,-0.04704,-0.158976,-0.485257,,,,,,
1736664896103,,,,,,,,,,,,,-0.078611,-3.2E-5,-0.638689,,,,,,
1736664896113,,,,,,,,,,,,,-0.245754,-0.532656,-0.321274,,,,,,
1736664896124,,,,,,,,,,,,,-0.129821,-0.273253,-0.408094,,,,,,
1736664896135,,,,,,,,,,,,,-0.418964,-0.671796,0.054433,,,,,,
1736664896144,,,,,,,,,,,,,-0.314123,-0.547396,-0.259622,,,,,,
1736664896155,,,,,,,,,,,,,-0.494985,-0.561732,0.598083,,,,,,
1736664896165,,,,,,,,,,,,,-0.412604,-0.489267,0.318156,,,,,,
1736664896175,,,,,,,,,,,,,-0.428782,-0.194081,0.93581,,,,,,
1736664896184,,,,,,,,,,,,,-0.401635,-0.298032,0.708786,,,,,,
1736664896194,,,,,,,,,,,,,-0.26518,0.204071,0.868018,,,,,,
1736664896204,,,,,,,,,,,,,-0.269495,0.063156,0.832813,,,,,,
1736664896214,,,,,,,,,,,,,-0.258862,0.340357,0.519296,,,,,,
1736664896224,,,,,,,,,,,,,-0.218635,0.294874,0.729723,,,,,,
1736664896234,,,,,,,,,,,,,-0.099506,0.445936,0.1577,,,,,,
1736664896244,,,,,,,,,,,,,-0.179044,0.342669,0.351964,,,,,,
1736664896255,,,,,,,,,,,,,0.190374,0.447561,-0.111263,,,,,,
1736664896265,,,,,,,,,,,,,0.032425,0.392365,0.048342,,,,,,
1736664896274,,,,,,,,,,,,,0.349339,0.107781,-0.339512,,,,,,
1736664896285,,,,,,,,,,,,,0.245673,0.229133,-0.194403,,,,,,
1736664896294,,,,,,,,,,,,,0.295015,-0.269302,-0.376142,,,,,,
1736664896304,,,,,,,,,,,,,0.267918,-0.08692,-0.376309,,,,,,
1736664896315,,,,,,,,,,,,,0.126914,-0.419454,-0.188052,,,,,,
1736664896325,,,,,,,,,,,,,0.148357,-0.340574,-0.351154,,,,,,
1736664896334,,,,,,,,,,,,,0.097668,-0.375444,0.163225,,,,,,
1736664896345,,,,,,,,,,,,,0.098022,-0.321282,0.002794,,,,,,
1736664896356,,,,,,,,,,,,,-0.066577,-0.294115,0.378149,,,,,,
1736664896365,,,,,,,,,,,,,0.04069,-0.283192,0.25389,,,,,,
1736664896375,,,,,,,,,,,,,-0.263256,-0.175916,0.464279,,,,,,
1736664896385,,,,,,,,,,,,,-0.132758,-0.209651,0.407955,,,,,,
1736664896395,,,,,,,,,,,,,-0.258179,0.110394,0.268294,,,,,,
1736664896405,,,,,,,,,,,,,-0.271512,-0.011504,0.409157,,,,,,
1736664896415,,,,,,,,,,,,,-0.145677,0.434768,-0.170344,,,,,,
1736664896426,,,,,,,,,,,,,-0.188076,0.255436,0.065125,,,,,,
1736664896435,,,,,,,,,,,,,-0.094197,0.517445,-0.326258,,,,,,
1736664896445,,,,,,,,,,,,,-0.091335,0.429915,-0.270358,,,,,,
1736664896455,,,,,,,,,,,,,-0.107563,0.308859,-0.170164,,,,,,
1736664896466,,,,,,,,,,,,,-0.120869,0.347402,-0.214273,,,,,,
1736664896476,,,,,,,,,,,,,0.010131,0.010013,-0.067718,,,,,,
1736664896486,,,,,,,,,,,,,-0.03837,0.12419,-0.132816,,,,,,
1736664896495,,,,,,,,,,,,,0.05297,-0.204599,-0.048522,,,,,,
1736664896505,,,,,,,,,,,,,0.043156,-0.114305,-0.036458,,,,,,
1736664896515,,,,,,,,,,,,,0.035429,-0.219941,-0.010516,,,,,,
1736664896526,,,,,,,,,,,,,0.040685,-0.207526,-0.022061,,,,,,
1736664896535,,,,,,,,,,,,,-0.068203,-0.115854,0.024139,,,,,,
1736664896545,,,,,,,,,,,,,-0.028599,-0.12553,0.001277,,,,,,
1736664896555,,,,,,,,,,,,,-0.113659,-0.08733,0.113048,,,,,,
1736664896567,,,,,,,,,,,,,-0.09842,-0.103145,-0.018796,,,,,,
1736664896577,,,,,,,,,,,,,-0.067445,-0.061095,0.181777,,,,,,
1736664896586,,,,,,,,,,,,,-0.073603,-0.031032,0.169054,,,,,,
1736664896596,,,,,,,,,,,,,-0.146334,-0.051562,0.005076,,,,,,
1736664896606,,,,,,,,,,,,,-0.08198,-0.072362,0.117896,,,,,,
1736664896616,,,,,,,,,,,,,-0.149524,0.060402,-0.210891,,,,,,
1736664896626,,,,,,,,,,,,,-0.12916,-0.009448,-0.147184,,,,,,
1736664896636,,,,,,,,,,,,,-0.179461,0.153012,-0.146955,,,,,,
1736664896647,,,,,,,,,,,,,-0.142616,0.080977,-0.172267,,,,,,
1736664896656,,,,,,,,,,,,,-0.11467,0.097777,-0.172984,,,,,,
1736664896667,,,,,,,,,,,,,-0.157678,0.110432,-0.158843,,,,,,
1736664896676,,,,,,,,,,,,,-0.023782,-0.068216,-0.136073,,,,,,
1736664896686,,,,,,,,,,,,,-0.065406,0.030416,-0.155317,,,,,,
1736664896696,,,,,,,,,,,,,0.00144,-0.060563,-0.097299,,,,,,
1736664896706,,,,,,,,,,,,,-0.006368,-0.092222,-0.120461,,,,,,
1736664896716,,,,,,,,,,,,,-0.12719,0.019612,-0.165464,,,,,,
1736664896727,,,,,,,,,,,,,-0.002885,-0.008889,-0.09782,,,,,,
1736664896737,,,,,,,,,,,,,-0.20261,0.038385,-0.229519,,,,,,
1736664896746,,,,,,,,,,,,,-0.186434,-0.001355,-0.239587,,,,,,
1736664896756,,,,,,,,,,,,,-0.049885,-0.053719,0.092812,,,,,,
1736664896766,,,,,,,,,,,,,-0.098677,0.021477,-0.114271,,,,,,
1736664896776,,,,,,,,,,,,,0.007546,-0.114723,0.276732,,,,,,
1736664896787,,,,,,,,,,,,,-0.033365,-0.075917,0.205598,,,,,,
1736664896797,,,,,,,,,,,,,0.005768,5.34E-4,0.21077,,,,,,
1736664896807,,,,,,,,,,,,,0.020708,-0.015444,0.242904,,,,,,
1736664896817,,,,,,,,,,,,,-0.064981,-0.131536,0.138441,,,,,,
1736664896827,,,,,,,,,,,,,-0.029623,-0.009173,0.117166,,,,,,
1736664896837,,,,,,,,,,,,,-0.043794,-0.242413,0.332259,,,,,,
1736664896847,,,,,,,,,,,,,-0.045048,-0.153551,0.23721,,,,,,
1736664896857,,,,,,,,,,,,,0.114695,-0.270144,0.314617,,,,,,
1736664896867,,,,,,,,,,,,,0.016759,-0.199826,0.309407,,,,,,
1736664896877,,,,,,,,,,,,,0.318597,-0.337787,0.116562,,,,,,
1736664896888,,,,,,,,,,,,,0.176624,-0.244154,0.223627,,,,,,
1736664896897,,,,,,,,,,,,,0.383236,-0.315686,-0.055336,,,,,,
1736664896908,,,,,,,,,,,,,0.326067,-0.286397,0.017004,,,,,,
1736664896918,,,,,,,,,,,,,0.381157,-0.257297,-0.105633,,,,,,
1736664896927,,,,,,,,,,,,,0.321086,-0.239598,-0.117844,,,,,,
1736664896937,,,,,,,,,,,,,0.176536,-0.163778,-0.006045,,,,,,
1736664896947,,,,,,,,,,,,,0.285466,-0.195487,-0.075377,,,,,,
1736664896957,,,,,,,,,,,,,0.036446,0.135978,0.101522,,,,,,
1736664896968,,,,,,,,,,,,,0.072034,-0.011775,0.1147,,,,,,
1736664896978,,,,,,,,,,,,,-0.132312,0.382105,-0.200266,,,,,,
1736664896988,,,,,,,,,,,,,-0.040699,0.19999,-0.027221,,,,,,
1736664896998,,,,,,,,,,,,,-0.215847,0.577438,-0.470484,,,,,,
1736664897007,,,,,,,,,,,,,-0.167648,0.412025,-0.316263,,,,,,
1736664897018,,,,,,,,,,,,,-0.156714,0.691099,-0.458375,,,,,,
1736664897029,,,,,,,,,,,,,-0.18238,0.54055,-0.471765,,,,,,
1736664897038,,,,,,,,,,,,,-0.116403,0.481022,-0.272116,,,,,,
1736664897049,,,,,,,,,,,,,-0.118298,0.538805,-0.347283,,,,,,
1736664897059,,,,,,,,,,,,,-0.247281,0.139502,0.049371,,,,,,
1736664897068,,,,,,,,,,,,,-0.124965,0.266275,-0.157437,,,,,,
1736664897078,,,,,,,,,,,,,-0.253564,-0.008693,0.324618,,,,,,
1736664897088,,,,,,,,,,,,,-0.231718,0.037244,0.216776,,,,,,
1736664897099,,,,,,,,,,,,,-0.189269,-0.06945,0.214303,,,,,,
1736664897108,,,,,,,,,,,,,-0.190476,-0.021727,0.313447,,,,,,
1736664897118,,,,,,,,,,,,,0.034844,-0.074365,0.070861,,,,,,
1736664897129,,,,,,,,,,,,,-0.075967,-0.043761,0.152082,,,,,,
1736664897138,,,,,,,,,,,,,0.443806,-0.048017,-0.380588,,,,,,
1736664897148,,,,,,,,,,,,,0.176423,-0.121996,-0.139585,,,,,,
1736664897158,,,,,,,,,,,,,0.828246,0.011983,-0.607665,,,,,,
1736664897168,,,,,,,,,,,,,0.572094,0.031043,-0.440652,,,,,,
1736664897179,,,,,,,,,,,,,0.73735,-0.276114,-0.531976,,,,,,
1736664897189,,,,,,,,,,,,,0.714469,-0.134129,-0.637662,,,,,,
1736664897198,,,,,,,,,,,,,0.284281,-0.567026,0.148408,,,,,,
1736664897208,,,,,,,,,,,,,0.422927,-0.347498,-0.25307,,,,,,
1736664897219,,,,,,,,,,,,,0.19206,-0.731255,0.530597,,,,,,
1736664897228,,,,,,,,,,,,,0.163874,-0.560292,0.372366,,,,,,
1736664897239,,,,,,,,,,,,,0.179869,-0.656271,0.564084,,,,,,
1736664897249,,,,,,,,,,,,,0.153755,-0.592688,0.582585,,,,,,
1736664897259,,,,,,,,,,,,,0.168515,-0.564175,0.510167,,,,,,
1736664897269,,,,,,,,,,,,,-0.092814,-0.226341,0.507959,,,,,,
1736664897280,,,,,,,,,,,,,0.094312,-0.286062,0.552196,,,,,,
1736664897289,,,,,,,,,,,,,-0.453485,0.112486,0.359498,,,,,,
1736664897299,,,,,,,,,,,,,-0.227411,-0.02553,0.426981,,,,,,
1736664897309,,,,,,,,,,,,,-0.519735,0.270533,0.276671,,,,,,
1736664897320,,,,,,,,,,,,,-0.397056,0.185482,0.282219,,,,,,
1736664897329,,,,,,,,,,,,,-0.520536,0.370161,0.139896,,,,,,
1736664897340,,,,,,,,,,,,,-0.437175,0.237207,0.221058,,,,,,
1736664897350,,,,,,,,,,,,,-0.465527,0.524434,-0.183491,,,,,,
1736664897359,,,,,,,,,,,,,-0.385503,0.387133,0.001449,,,,,,
1736664897370,,,,,,,,,,,,,-0.604367,0.555635,-0.41957,,,,,,
1736664897379,,,,,,,,,,,,,-0.441679,0.438694,-0.295249,,,,,,
1736664897389,,,,,,,,,,,,,-0.612042,0.376634,-0.444938,,,,,,
1736664897399,,,,,,,,,,,,,-0.548594,0.385483,-0.398387,,,,,,
1736664897409,,,,,,,,,,,,,-0.32417,0.179884,-0.186779,,,,,,
1736664897420,,,,,,,,,,,,,-0.416853,0.238528,-0.319203,,,,,,
1736664897429,,,,,,,,,,,,,-0.079411,-0.082829,-0.09708,,,,,,
1736664897439,,,,,,,,,,,,,-0.167598,0.037161,-0.143915,,,,,,
1736664897449,,,,,,,,,,,,,0.116277,-0.226687,-0.115201,,,,,,
1736664897459,,,,,,,,,,,,,0.055839,-0.154494,-0.097828,,,,,,
1736664897471,,,,,,,,,,,,,0.058112,-0.156768,-0.138591,,,,,,
1736664897480,,,,,,,,,,,,,0.108701,-0.211204,-0.111641,,,,,,
1736664897491,,,,,,,,,,,,,0.050856,0.039168,-0.236803,,,,,,
1736664897500,,,,,,,,,,,,,0.042553,-0.045394,-0.160028,,,,,,
1736664897510,,,,,,,,,,,,,0.014448,-0.043988,-0.360653,,,,,,
1736664897520,,,,,,,,,,,,,0.026625,0.024278,-0.323171,,,,,,
1736664897530,,,,,,,,,,,,,0.132349,-0.058778,-0.108347,,,,,,
1736664897541,,,,,,,,,,,,,0.025562,-0.04242,-0.260047,,,,,,
1736664897550,,,,,,,,,,,,,0.343164,-0.172157,0.228164,,,,,,
1736664897561,,,,,,,,,,,,,0.188281,-0.046922,0.027668,,,,,,
1736664897570,,,,,,,,,,,,,0.443667,-0.282886,0.289166,,,,,,
1736664897580,,,,,,,,,,,,,0.357088,-0.160581,0.322558,,,,,,
1736664897591,,,,,,,,,,,,,0.258834,-0.362831,0.255642,,,,,,
1736664897600,,,,,,,,,,,,,0.33815,-0.257243,0.204678,,,,,,
1736664897610,,,,,,,,,,,,,-0.155732,-0.351504,0.285302,,,,,,
1736664897620,,,,,,,,,,,,,0.059594,-0.305865,0.20788,,,,,,
1736664897630,,,,,,,,,,,,,-0.139265,0.062508,0.368093,,,,,,
1736664897640,,,,,,,,,,,,,-0.167035,-0.123944,0.386394,,,,,,
1736664897650,,,,,,,,,,,,,0.012896,0.365018,-0.068316,,,,,,
1736664897661,,,,,,,,,,,,,-0.046546,0.214665,0.238177,,,,,,
1736664897670,,,,,,,,,,,,,-0.010254,0.540898,-0.717045,,,,,,
1736664897680,,,,,,,,,,,,,0.044089,0.369876,-0.357843,,,,,,
1736664897691,,,,,,,,,,,,,-0.062451,0.546509,-0.908112,,,,,,
1736664897701,,,,,,,,,,,,,-0.041347,0.397151,-0.834567,,,,,,
1736664897711,,,,,,,,,,,,,-0.018259,0.381657,-0.776631,,,,,,
1736664897721,,,,,,,,,,,,,-0.021074,0.39939,-0.814397,,,,,,
1736664897732,,,,,,,,,,,,,0.146559,-0.066828,-0.452855,,,,,,
1736664897742,,,,,,,,,,,,,0.05623,0.131264,-0.610899,,,,,,
1736664897751,,,,,,,,,,,,,0.184809,-0.572876,-0.08813,,,,,,
1736664897761,,,,,,,,,,,,,0.16606,-0.226024,-0.304776,,,,,,
1736664897772,,,,,,,,,,,,,0.214471,-0.668343,0.379095,,,,,,
1736664897782,,,,,,,,,,,,,0.190546,-0.509669,0.099079,,,,,,
1736664897791,,,,,,,,,,,,,0.34163,-0.604518,0.428699,,,,,,
1736664897801,,,,,,,,,,,,,0.216661,-0.556483,0.449527,,,,,,
1736664897811,,,,,,,,,,,,,0.453808,-0.201122,-0.150472,,,,,,
1736664897821,,,,,,,,,,,,,0.378368,-0.251101,0.194106,,,,,,
1736664897831,,,,,,,,,,,,,0.009828,-0.326285,-0.619302,,,,,,
1736664897842,,,,,,,,,,,,,0.24521,-0.215311,-0.502349,,,,,,
1736664897851,,,,,,,,,,,,,-0.382874,-0.201296,-0.551345,,,,,,
1736664897861,,,,,,,,,,,,,-0.136417,-0.313741,-0.611146,,,,,,
1736664897871,,,,,,,,,,,,,-0.437484,0.101075,-0.36925,,,,,,
1736664897882,,,,,,,,,,,,,-0.279135,-0.046716,-0.521396,,,,,,
1736664897891,,,,,,,,,,,,,-0.401295,0.133029,0.019269,,,,,,
1736664897901,,,,,,,,,,,,,-0.282341,0.111333,-0.20485,,,,,,
1736664897911,,,,,,,,,,,,,-0.393856,0.12793,0.344411,,,,,,
1736664897923,,,,,,,,,,,,,-0.233064,0.183464,0.202875,,,,,,
1736664897932,,,,,,,,,,,,,-0.355592,0.362547,0.150214,,,,,,
1736664897942,,,,,,,,,,,,,-0.30463,0.233323,0.311118,,,,,,
1736664897952,,,,,,,,,,,,,-0.391813,0.489198,-0.378769,,,,,,
1736664897962,,,,,,,,,,,,,-0.236777,0.458497,-0.131155,,,,,,
1736664894968,,,,,,,,,,,,,,,,0.145679,-0.23592,-0.887625,,,
1736664894978,,,,,,,,,,,,,,,,0.145242,-0.236458,-0.887404,,,
1736664894989,,,,,,,,,,,,,,,,0.143565,-0.235855,-0.887458,,,
1736664894999,,,,,,,,,,,,,,,,0.142892,-0.235783,-0.887046,,,
1736664895009,,,,,,,,,,,,,,,,0.140684,-0.235314,-0.886893,,,
1736664895019,,,,,,,,,,,,,,,,0.139297,-0.235267,-0.886277,,,
1736664895030,,,,,,,,,,,,,,,,0.13756,-0.235075,-0.885659,,,
1736664895039,,,,,,,,,,,,,,,,0.136841,-0.235251,-0.884627,,,
1736664895050,,,,,,,,,,,,,,,,0.13546,-0.235184,-0.883653,,,
1736664895060,,,,,,,,,,,,,,,,0.134932,-0.235382,-0.882206,,,
1736664895069,,,,,,,,,,,,,,,,0.132741,-0.234631,-0.881081,,,
1736664895079,,,,,,,,,,,,,,,,0.131948,-0.234377,-0.879417,,,
1736664895089,,,,,,,,,,,,,,,,0.127562,-0.232674,-0.878367,,,
1736664895100,,,,,,,,,,,,,,,,0.124876,-0.231232,-0.877086,,,
1736664895109,,,,,,,,,,,,,,,,0.119107,-0.228741,-0.876361,,,
1736664895120,,,,,,,,,,,,,,,,0.114621,-0.226489,-0.875569,,,
