timestamp,acc_x,acc_y,acc_z,mag_x,mag_y,mag_z,gra_x,gra_y,gra_z,gyr_x,gyr_y,gyr_z,linear_x,linear_y,linear_z,rot_x,rot_y,rot_z,light,pressure,proximity
1736676516711,4.39905,4.8640504,6.3510003,,,,,,,,,,,,,,,,,,
1736676516721,4.1740503,4.88805,6.8710504,,,,,,,,,,,,,,,,,,
1736676516732,3.76395,4.81395,7.2520504,,,,,,,,,,,,,,,,,,
1736676516742,3.55605,4.75395,7.5769506,,,,,,,,,,,,,,,,,,
1736676516752,3.4770002,4.7250004,7.3879504,,,,,,,,,,,,,,,,,,
1736676516762,3.5629501,4.68195,7.1800504,,,,,,,,,,,,,,,,,,
1736676516772,3.762,4.58895,7.26105,,,,,,,,,,,,,,,,,,
1736676516782,3.8149502,4.4539504,7.3399506,,,,,,,,,,,,,,,,,,
1736676516792,3.7429502,4.347,7.52895,,,,,,,,,,,,,,,,,,
1736676516802,3.6420002,4.275,7.7449503,,,,,,,,,,,,,,,,,,
1736676516812,3.55605,4.2720003,7.89795,,,,,,,,,,,,,,,,,,
1736676516822,3.417,4.28205,8.11095,,,,,,,,,,,,,,,,,,
1736676516833,3.1990502,4.308,8.370001,,,,,,,,,,,,,,,,,,
1736676516843,2.9599502,4.2649503,8.595,,,,,,,,,,,,,,,,,,
1736676516852,2.70105,4.24905,8.841001,,,,,,,,,,,,,,,,,,
1736676516862,2.5410001,4.16505,8.905951,,,,,,,,,,,,,,,,,,
1736676516872,2.4880502,4.0690503,8.832001,,,,,,,,,,,,,,,,,,
1736676516882,2.53605,3.9540002,8.68605,,,,,,,,,,,,,,,,,,
1736676516892,2.6580002,3.834,8.470051,,,,,,,,,,,,,,,,,,
1736676516902,2.74005,3.7669501,8.425051,,,,,,,,,,,,,,,,,,
1736676516912,2.673,3.834,8.499001,,,,,,,,,,,,,,,,,,
1736676516923,2.4880502,3.8509502,8.46105,,,,,,,,,,,,,,,,,,
1736676516933,2.32305,3.8490002,8.467951,,,,,,,,,,,,,,,,,,
1736676516942,2.16,3.8509502,8.614051,,,,,,,,,,,,,,,,,,
1736676516952,2.0020502,3.82695,8.87205,,,,,,,,,,,,,,,,,,
1736676516964,1.8610501,3.7840502,9.019051,,,,,,,,,,,,,,,,,,
1736676516974,1.8510001,3.70005,9.150001,,,,,,,,,,,,,,,,,,
1736676516984,1.8780001,3.6070502,9.31995,,,,,,,,,,,,,,,,,,
1736676516994,1.8319501,3.4750502,9.346951,,,,,,,,,,,,,,,,,,
1736676517003,1.746,3.4129503,9.43305,,,,,,,,,,,,,,,,,,
1736676517013,1.62195,3.3790503,9.519,,,,,,,,,,,,,,,,,,
1736676517024,1.5139501,3.3289502,9.406051,,,,,,,,,,,,,,,,,,
1736676517034,1.47105,3.2430003,9.27705,,,,,,,,,,,,,,,,,,
1736676517043,1.452,3.21405,9.238951,,,,,,,,,,,,,,,,,,
1736676517053,1.3290001,3.21195,9.31305,,,,,,,,,,,,,,,,,,
1736676517063,1.0999501,3.1620002,9.387,,,,,,,,,,,,,,,,,,
1736676517073,0.915,3.0349503,9.403951,,,,,,,,,,,,,,,,,,
1736676517083,0.83595,3.0199502,9.48795,,,,,,,,,,,,,,,,,,
1736676517093,0.75195,3.0250502,9.61005,,,,,,,,,,,,,,,,,,
1736676517103,0.65205,2.9890501,9.65505,,,,,,,,,,,,,,,,,,
1736676517113,0.64905006,2.90805,9.580951,,,,,,,,,,,,,,,,,,
1736676517123,0.70395005,2.83095,9.579,,,,,,,,,,,,,,,,,,
1736676517134,0.77205,2.766,9.691051,,,,,,,,,,,,,,,,,,
1736676517143,0.84300005,2.7259502,9.900001,,,,,,,,,,,,,,,,,,
1736676517153,0.76905006,2.6250002,10.029,,,,,,,,,,,,,,,,,,
1736676517163,0.61395,2.50095,10.09605,,,,,,,,,,,,,,,,,,
1736676517173,0.46995002,2.4480002,10.174951,,,,,,,,,,,,,,,,,,
1736676517183,0.40800002,2.4790502,10.2300005,,,,,,,,,,,,,,,,,,
1736676517193,0.37395,2.52195,10.225051,,,,,,,,,,,,,,,,,,
1736676517204,0.37905002,2.56095,10.1650505,,,,,,,,,,,,,,,,,,
1736676517214,0.31905,2.5489502,10.101001,,,,,,,,,,,,,,,,,,
1736676517225,0.20595,2.60805,10.225051,,,,,,,,,,,,,,,,,,
1736676517235,-0.006,2.6920502,10.40205,,,,,,,,,,,,,,,,,,
1736676517244,-0.33795002,2.7139502,10.36695,,,,,,,,,,,,,,,,,,
1736676517254,-0.59205,2.59605,10.182,,,,,,,,,,,,,,,,,,
1736676517264,-0.68805003,2.53695,9.97605,,,,,,,,,,,,,,,,,,
1736676517274,-0.64695,2.4049501,9.64095,,,,,,,,,,,,,,,,,,
1736676517285,-0.46800002,2.33295,9.387,,,,,,,,,,,,,,,,,,
1736676517295,-0.28095,2.42205,9.226951,,,,,,,,,,,,,,,,,,
1736676517304,-0.16395001,2.5440001,9.21,,,,,,,,,,,,,,,,,,
1736676517314,-0.13305001,2.6470501,9.226951,,,,,,,,,,,,,,,,,,
1736676517324,-0.15405001,2.709,9.222,,,,,,,,,,,,,,,,,,
1736676517334,-0.20205002,2.6920502,9.21195,,,,,,,,,,,,,,,,,,
1736676517344,-0.27105,2.697,9.177,,,,,,,,,,,,,,,,,,
1736676517354,-0.28095,2.6800501,9.078,,,,,,,,,,,,,,,,,,
1736676517364,-0.16800001,2.7210002,9.064051,,,,,,,,,,,,,,,,,,
1736676517374,-0.030000001,2.73105,9.082951,,,,,,,,,,,,,,,,,,
1736676517385,0.08205,2.6779501,9.11205,,,,,,,,,,,,,,,,,,
1736676517395,0.16095,2.7190502,9.102,,,,,,,,,,,,,,,,,,
1736676517405,0.18495001,2.8219502,9.0379505,,,,,,,,,,,,,,,,,,
1736676517414,0.19005,2.8980002,8.96595,,,,,,,,,,,,,,,,,,
1736676517424,0.19500001,2.9599502,8.83905,,,,,,,,,,,,,,,,,,
1736676517435,0.22095,3.0349503,8.736,,,,,,,,,,,,,,,,,,
1736676517445,0.25005,3.1330502,8.71905,,,,,,,,,,,,,,,,,,
1736676517455,0.28095,3.2329502,8.69295,,,,,,,,,,,,,,,,,,
1736676517465,0.33600003,3.24795,8.632951,,,,,,,,,,,,,,,,,,
1736676517475,0.33105,3.2310002,8.544001,,,,,,,,,,,,,,,,,,
1736676517486,0.29505002,3.288,8.55405,,,,,,,,,,,,,,,,,,
1736676517495,0.22095,3.3940501,8.62605,,,,,,,,,,,,,,,,,,
1736676517505,0.135,3.5059502,8.69505,,,,,,,,,,,,,,,,,,
1736676517515,0.048,3.5760002,8.7619505,,,,,,,,,,,,,,,,,,
1736676517525,0.03195,3.6000001,8.776951,,,,,,,,,,,,,,,,,,
1736676517535,-0.027,3.55695,8.748,,,,,,,,,,,,,,,,,,
1736676517545,-0.10395,3.4939501,8.785951,,,,,,,,,,,,,,,,,,
1736676517555,-0.18495001,3.4680002,8.832001,,,,,,,,,,,,,,,,,,
1736676517565,-0.22095,3.4459503,8.892,,,,,,,,,,,,,,,,,,
1736676517575,-0.17805001,3.456,8.97795,,,,,,,,,,,,,,,,,,
1736676517585,-0.06795,3.3670502,9.019051,,,,,,,,,,,,,,,,,,
1736676517595,0.064950004,3.255,9.094951,,,,,,,,,,,,,,,,,,
1736676517605,0.156,3.1710002,9.265051,,,,,,,,,,,,,,,,,,
1736676517615,0.14205001,3.0589502,9.4140005,,,,,,,,,,,,,,,,,,
1736676517626,0.087000005,2.9650502,9.50205,,,,,,,,,,,,,,,,,,
1736676517636,0.063,2.8930502,9.543,,,,,,,,,,,,,,,,,,
1736676517645,0.11505,2.84505,9.559951,,,,,,,,,,,,,,,,,,
1736676517655,0.20895001,2.80005,9.588,,,,,,,,,,,,,,,,,,
1736676517667,0.27405003,2.70405,9.63405,,,,,,,,,,,,,,,,,,
1736676517677,0.28995,2.4820502,10.08195,,,,,,,,,,,,,,,,,,
1736676517686,0.28800002,2.39295,10.330951,,,,,,,,,,,,,,,,,,
1736676517696,0.312,2.47005,10.10295,,,,,,,,,,,,,,,,,,
1736676517706,0.25395,2.6440501,9.859051,,,,,,,,,,,,,,,,,,
1736676517716,0.192,2.8549502,9.67695,,,,,,,,,,,,,,,,,,
1736676517726,0.17295001,3.0199502,9.399,,,,,,,,,,,,,,,,,,
1736676517736,0.14205001,3.078,9.081,,,,,,,,,,,,,,,,,,
1736676517747,0.135,3.075,8.832001,,,,,,,,,,,,,,,,,,
1736676517757,0.123,3.0970502,8.700001,,,,,,,,,,,,,,,,,,
1736676517766,0.08400001,3.1260002,8.722051,,,,,,,,,,,,,,,,,,
1736676517776,0.039,3.0919502,8.85795,,,,,,,,,,,,,,,,,,
1736676517786,-0.003,3.0679502,8.98305,,,,,,,,,,,,,,,,,,
1736676517796,0.00795,3.015,9.17205,,,,,,,,,,,,,,,,,,
1736676517807,0.11805001,2.9989502,9.3490505,,,,,,,,,,,,,,,,,,
1736676517817,0.27600002,3.0250502,9.50895,,,,,,,,,,,,,,,,,,
1736676517826,0.36705002,3.042,9.648001,,,,,,,,,,,,,,,,,,
1736676517836,0.381,3.0349503,9.675,,,,,,,,,,,,,,,,,,
1736676517846,0.32895002,2.9509501,9.550051,,,,,,,,,,,,,,,,,,
1736676517856,0.264,2.9239502,9.3490505,,,,,,,,,,,,,,,,,,
1736676517867,0.18705001,2.901,9.153001,,,,,,,,,,,,,,,,,,
1736676517877,0.18705001,2.8840501,9.00195,,,,,,,,,,,,,,,,,,
1736676517886,0.25905,2.8960502,8.916,,,,,,,,,,,,,,,,,,
1736676517897,0.33600003,2.9239502,8.961,,,,,,,,,,,,,,,,,,
1736676517908,0.36195,2.9149501,9.076051,,,,,,,,,,,,,,,,,,
1736676517918,0.333,2.90805,9.2029505,,,,,,,,,,,,,,,,,,
1736676517927,0.264,2.90295,9.318001,,,,,,,,,,,,,,,,,,
1736676517937,0.17805001,2.9170501,9.361051,,,,,,,,,,,,,,,,,,
1736676517947,0.15405001,2.90295,9.27705,,,,,,,,,,,,,,,,,,
1736676517957,0.13695,2.913,9.177,,,,,,,,,,,,,,,,,,
1736676517967,0.08400001,2.9580002,9.052051,,,,,,,,,,,,,,,,,,
1736676517977,0.043950003,3.0270002,8.96805,,,,,,,,,,,,,,,,,,
1736676517987,0.036000002,3.0679502,8.932051,,,,,,,,,,,,,,,,,,
1736676517997,0.05595,3.114,8.929951,,,,,,,,,,,,,,,,,,
1736676518007,0.08400001,3.1060503,8.97795,,,,,,,,,,,,,,,,,,
1736676518017,0.072000004,3.0660002,9.031051,,,,,,,,,,,,,,,,,,
1736676518028,0.051000003,3.04905,9.052051,,,,,,,,,,,,,,,,,,
1736676518038,0.08205,2.9869502,8.98305,,,,,,,,,,,,,,,,,,
1736676518047,0.13695,2.9509501,8.88195,,,,,,,,,,,,,,,,,,
1736676518057,0.16095,2.9869502,8.832001,,,,,,,,,,,,,,,,,,
1736676518067,0.13905,3.0540001,8.844001,,,,,,,,,,,,,,,,,,
1736676518077,0.096,3.07095,8.923051,,,,,,,,,,,,,,,,,,
1736676518087,0.058050003,3.1060503,8.974951,,,,,,,,,,,,,,,,,,
1736676518097,-0.0010500001,3.1350002,9.00195,,,,,,,,,,,,,,,,,,
1736676518107,0.01305,3.1380002,8.98005,,,,,,,,,,,,,,,,,,
1736676518117,0.04605,3.1740003,9.01605,,,,,,,,,,,,,,,,,,
1736676518129,0.11505,3.1519501,9.01095,,,,,,,,,,,,,,,,,,
1736676518139,0.13695,3.1260002,9.057,,,,,,,,,,,,,,,,,,
1736676518148,0.11100001,3.0630002,9.10995,,,,,,,,,,,,,,,,,,
1736676518158,0.11505,2.9959502,9.14805,,,,,,,,,,,,,,,,,,
1736676518169,0.10095,2.9599502,9.121051,,,,,,,,,,,,,,,,,,
1736676518179,0.07005,2.94405,9.042001,,,,,,,,,,,,,,,,,,
1736676518189,0.072000004,2.97195,8.93505,,,,,,,,,,,,,,,,,,
1736676518199,0.058050003,3.0250502,8.81295,,,,,,,,,,,,,,,,,,
1736676518208,0.027,3.08295,8.740951,,,,,,,,,,,,,,,,,,
1736676518218,0.027,3.14505,8.746051,,,,,,,,,,,,,,,,,,
1736676518228,0.06795,3.1330502,8.772,,,,,,,,,,,,,,,,,,
1736676518238,0.09195001,3.078,8.89395,,,,,,,,,,,,,,,,,,
1736676518249,0.13005,3.04695,9.061951,,,,,,,,,,,,,,,,,,
1736676518259,0.123,3.04395,9.16005,,,,,,,,,,,,,,,,,,
1736676518268,0.10605001,2.982,9.20505,,,,,,,,,,,,,,,,,,
1736676518278,0.09195001,2.9239502,9.18105,,,,,,,,,,,,,,,,,,
1736676518289,0.08205,2.87205,9.121051,,,,,,,,,,,,,,,,,,
1736676518299,0.132,2.8240502,9.02805,,,,,,,,,,,,,,,,,,
1736676518308,0.192,2.841,8.961,,,,,,,,,,,,,,,,,,
1736676518319,0.23295002,2.86695,8.916,,,,,,,,,,,,,,,,,,
1736676518329,0.22800002,2.90805,8.84895,,,,,,,,,,,,,,,,,,
1736676518339,0.18,2.9149501,8.829,,,,,,,,,,,,,,,,,,
1736676518348,0.120000005,2.8930502,8.83395,,,,,,,,,,,,,,,,,,
1736676518359,0.052950002,2.8960502,8.889001,,,,,,,,,,,,,,,,,,
1736676518370,-0.006,2.9149501,8.911051,,,,,,,,,,,,,,,,,,
1736676518380,0.00795,2.94105,8.956051,,,,,,,,,,,,,,,,,,
1736676518389,0.058050003,2.9940002,9.009001,,,,,,,,,,,,,,,,,,
1736676518399,0.05595,3.0229502,8.98995,,,,,,,,,,,,,,,,,,
1736676518409,0.036000002,3.0229502,8.916,,,,,,,,,,,,,,,,,,
1736676518419,0.027,3.0270002,8.84595,,,,,,,,,,,,,,,,,,
1736676518429,0.00795,3.0610502,8.82705,,,,,,,,,,,,,,,,,,
1736676518439,-0.039,3.0319502,8.841001,,,,,,,,,,,,,,,,,,
1736676518450,-0.076950006,2.97195,8.853001,,,,,,,,,,,,,,,,,,
1736676518459,-0.08895,2.9239502,8.829,,,,,,,,,,,,,,,,,,
1736676518469,-0.043950003,2.8960502,8.83695,,,,,,,,,,,,,,,,,,
1736676518479,-0.006,2.91,8.83905,,,,,,,,,,,,,,,,,,
1736676516737,,,,-40.3125,-48.300003,-12.243751,,,,,,,,,,,,,,,
1736676516763,,,,-26.812502,-6.7875004,-34.55625,,,,,,,,,,,,,,,
1736676516783,,,,-26.7,-6.6562505,-34.443752,,,,,,,,,,,,,,,
1736676516803,,,,-26.1,-6.5437503,-34.3125,,,,,,,,,,,,,,,
1736676516823,,,,-25.312502,-6.3562503,-34.3125,,,,,,,,,,,,,,,
1736676516843,,,,-24.35625,-6.3562503,-34.612503,,,,,,,,,,,,,,,
1736676516863,,,,-23.7,-5.8875003,-34.55625,,,,,,,,,,,,,,,
1736676516883,,,,-23.15625,-5.64375,-34.5,,,,,,,,,,,,,,,
1736676516904,,,,-22.3125,-5.15625,-34.256252,,,,,,,,,,,,,,,
1736676516924,,,,-21.84375,-4.55625,-34.2,,,,,,,,,,,,,,,
1736676516944,,,,-21.0,-4.6875,-33.956253,,,,,,,,,,,,,,,
1736676516963,,,,-20.04375,-3.8437502,-34.0125,,,,,,,,,,,,,,,
1736676516984,,,,-19.44375,-3.54375,-34.143753,,,,,,,,,,,,,,,
1736676517004,,,,-18.6,-2.9437501,-33.84375,,,,,,,,,,,,,,,
1736676517025,,,,-17.5125,-1.9875001,-33.65625,,,,,,,,,,,,,,,
1736676517045,,,,-16.9125,-1.6875001,-33.112503,,,,,,,,,,,,,,,
1736676517063,,,,-16.0125,-1.1437501,-32.456253,,,,,,,,,,,,,,,
1736676517084,,,,-15.3,-0.6,-32.2125,,,,,,,,,,,,,,,
1736676517104,,,,-14.343751,-0.4875,-32.2125,,,,,,,,,,,,,,,
1736676517125,,,,-13.44375,-0.54375005,-32.4,,,,,,,,,,,,,,,
1736676517145,,,,-13.14375,-0.24375,-32.4,,,,,,,,,,,,,,,
1736676517164,,,,-12.543751,0.056250002,-31.85625,,,,,,,,,,,,,,,
1736676517184,,,,-12.4125,0.65625,-31.44375,,,,,,,,,,,,,,,
1736676517204,,,,-12.3,1.5,-30.843752,,,,,,,,,,,,,,,
1736676517224,,,,-11.700001,2.15625,-30.4125,,,,,,,,,,,,,,,
1736676517244,,,,-10.743751,2.34375,-30.300001,,,,,,,,,,,,,,,
1736676517265,,,,-9.95625,2.2125,-30.056252,,,,,,,,,,,,,,,
1736676517284,,,,-9.712501,2.1000001,-30.112501,,,,,,,,,,,,,,,
1736676517304,,,,-9.356251,1.9125,-30.4125,,,,,,,,,,,,,,,
1736676517324,,,,-9.712501,1.9125,-30.712502,,,,,,,,,,,,,,,
1736676517345,,,,-9.95625,2.04375,-30.712502,,,,,,,,,,,,,,,
1736676517364,,,,-9.65625,1.85625,-30.712502,,,,,,,,,,,,,,,
1736676517385,,,,-10.14375,1.7437501,-30.300001,,,,,,,,,,,,,,,
1736676517404,,,,-10.6125,1.6125001,-30.243752,,,,,,,,,,,,,,,
1736676517425,,,,-10.856251,1.5,-30.843752,,,,,,,,,,,,,,,
1736676517445,,,,-11.45625,1.25625,-30.956251,,,,,,,,,,,,,,,
1736676517465,,,,-11.75625,0.95625,-31.556252,,,,,,,,,,,,,,,
1736676517484,,,,-11.700001,0.71250004,-31.800001,,,,,,,,,,,,,,,
1736676517505,,,,-12.056251,0.6,-31.9125,,,,,,,,,,,,,,,
1736676517524,,,,-11.94375,0.71250004,-32.15625,,,,,,,,,,,,,,,
1736676517544,,,,-11.75625,0.71250004,-32.100002,,,,,,,,,,,,,,,
1736676517565,,,,-11.94375,0.65625,-32.100002,,,,,,,,,,,,,,,
1736676517584,,,,-12.1125,0.3,-31.9125,,,,,,,,,,,,,,,
1736676517604,,,,-12.543751,0.3,-31.556252,,,,,,,,,,,,,,,
1736676517624,,,,-12.656251,0.24375,-31.743752,,,,,,,,,,,,,,,
1736676517644,,,,-12.900001,0.35625002,-31.612501,,,,,,,,,,,,,,,
1736676517664,,,,-12.843751,0.71250004,-31.500002,,,,,,,,,,,,,,,
1736676517684,,,,-12.6,0.65625,-31.743752,,,,,,,,,,,,,,,
1736676517705,,,,-12.712501,0.71250004,-31.25625,,,,,,,,,,,,,,,
1736676517725,,,,-12.6,0.84375006,-31.0125,,,,,,,,,,,,,,,
1736676517745,,,,-12.243751,0.71250004,-30.900002,,,,,,,,,,,,,,,
1736676517765,,,,-12.1125,0.6,-30.656252,,,,,,,,,,,,,,,
1736676517784,,,,-12.056251,0.54375005,-30.843752,,,,,,,,,,,,,,,
1736676517804,,,,-12.1125,0.056250002,-31.0125,,,,,,,,,,,,,,,
1736676517824,,,,-12.543751,0.056250002,-31.2,,,,,,,,,,,,,,,
1736676517844,,,,-12.356251,0.24375,-31.44375,,,,,,,,,,,,,,,
1736676517864,,,,-12.3,0.41250002,-31.312502,,,,,,,,,,,,,,,
1736676517884,,,,-12.0,0.71250004,-31.0125,,,,,,,,,,,,,,,
1736676517904,,,,-11.75625,0.65625,-31.44375,,,,,,,,,,,,,,,
1736676517924,,,,-12.3,0.65625,-31.44375,,,,,,,,,,,,,,,
1736676517945,,,,-12.243751,0.54375005,-31.743752,,,,,,,,,,,,,,,
1736676517964,,,,-11.8125,0.54375005,-32.15625,,,,,,,,,,,,,,,
1736676517984,,,,-11.94375,0.6,-32.34375,,,,,,,,,,,,,,,
1736676518005,,,,-11.400001,0.41250002,-32.756252,,,,,,,,,,,,,,,
1736676518025,,,,-11.34375,0.41250002,-32.4,,,,,,,,,,,,,,,
1736676518044,,,,-11.700001,0.112500004,-32.15625,,,,,,,,,,,,,,,
1736676518064,,,,-11.8125,0.0,-32.100002,,,,,,,,,,,,,,,
1736676518084,,,,-11.75625,0.0,-31.85625,,,,,,,,,,,,,,,
1736676518104,,,,-11.45625,0.0,-32.7,,,,,,,,,,,,,,,
1736676518124,,,,-11.1,0.0,-32.756252,,,,,,,,,,,,,,,
1736676518145,,,,-10.743751,0.24375,-32.5125,,,,,,,,,,,,,,,
1736676518164,,,,-10.9125,0.24375,-32.643753,,,,,,,,,,,,,,,
1736676518184,,,,-11.043751,0.112500004,-32.4,,,,,,,,,,,,,,,
1736676518205,,,,-10.9125,0.0,-32.04375,,,,,,,,,,,,,,,
1736676518224,,,,-10.9125,-0.35625002,-32.100002,,,,,,,,,,,,,,,
1736676518244,,,,-10.5,-0.6,-31.9125,,,,,,,,,,,,,,,
1736676518265,,,,-10.5,-0.6,-31.85625,,,,,,,,,,,,,,,
1736676518284,,,,-10.5,-0.056250002,-32.100002,,,,,,,,,,,,,,,
1736676518304,,,,-10.5,0.112500004,-31.85625,,,,,,,,,,,,,,,
1736676518324,,,,-10.743751,0.24375,-31.85625,,,,,,,,,,,,,,,
1736676518345,,,,-10.743751,-0.056250002,-31.44375,,,,,,,,,,,,,,,
1736676518365,,,,-10.743751,-0.4875,-31.556252,,,,,,,,,,,,,,,
1736676518385,,,,-10.743751,-0.4875,-31.85625,,,,,,,,,,,,,,,
1736676518404,,,,-10.5,-0.4875,-31.800001,,,,,,,,,,,,,,,
1736676518425,,,,-10.44375,-0.3,-32.04375,,,,,,,,,,,,,,,
1736676518445,,,,-10.6125,-0.1875,-32.04375,,,,,,,,,,,,,,,
1736676518465,,,,-10.25625,-0.54375005,-31.85625,,,,,,,,,,,,,,,
1736676518485,,,,-10.25625,-0.24375,-31.800001,,,,,,,,,,,,,,,
1736676516732,,,,,,,4.220181,4.90333,7.370229,,,,,,,,,,,,
1736676516742,,,,,,,4.110904,4.874066,7.450965,,,,,,,,,,,,
1736676516752,,,,,,,4.035755,4.857278,7.502825,,,,,,,,,,,,
1736676516762,,,,,,,3.953729,4.836736,7.55958,,,,,,,,,,,,
1736676516772,,,,,,,3.862655,4.810636,7.623086,,,,,,,,,,,,
1736676516782,,,,,,,3.806882,4.760937,7.68214,,,,,,,,,,,,
1736676516792,,,,,,,3.744009,4.726712,7.734036,,,,,,,,,,,,
1736676516802,,,,,,,3.662694,4.659429,7.813424,,,,,,,,,,,,
1736676516812,,,,,,,3.594886,4.608009,7.875194,,,,,,,,,,,,
1736676516822,,,,,,,3.486766,4.543509,7.960858,,,,,,,,,,,,
1736676516833,,,,,,,3.397277,4.489609,8.029864,,,,,,,,,,,,
1736676516843,,,,,,,3.250584,4.427599,8.124482,,,,,,,,,,,,
1736676516852,,,,,,,3.137278,4.377834,8.195687,,,,,,,,,,,,
1736676516862,,,,,,,2.989423,4.320124,8.281112,,,,,,,,,,,,
1736676516872,,,,,,,2.84489,4.256875,8.364327,,,,,,,,,,,,
1736676516882,,,,,,,2.721909,4.201305,8.433022,,,,,,,,,,,,
1736676516892,,,,,,,2.635671,4.136789,8.492074,,,,,,,,,,,,
1736676516902,,,,,,,2.543082,4.078,8.548546,,,,,,,,,,,,
1736676516912,,,,,,,2.474343,4.017008,8.597458,,,,,,,,,,,,
1736676516922,,,,,,,2.42002,3.955296,8.641418,,,,,,,,,,,,
1736676516932,,,,,,,2.331719,3.90422,8.688812,,,,,,,,,,,,
1736676516942,,,,,,,2.25965,3.852849,8.730722,,,,,,,,,,,,
1736676516952,,,,,,,2.143103,3.791879,8.786652,,,,,,,,,,,,
1736676516964,,,,,,,2.053344,3.741773,8.829473,,,,,,,,,,,,
1736676516974,,,,,,,1.938893,3.669332,8.885575,,,,,,,,,,,,
1736676516984,,,,,,,1.839207,3.611914,8.930166,,,,,,,,,,,,
1736676516994,,,,,,,1.746627,3.528733,8.981838,,,,,,,,,,,,
1736676517003,,,,,,,1.665923,3.464948,9.021898,,,,,,,,,,,,
1736676517013,,,,,,,1.574464,3.389742,9.066743,,,,,,,,,,,,
1736676517024,,,,,,,1.51001,3.329012,9.100096,,,,,,,,,,,,
1736676517034,,,,,,,1.435081,3.269564,9.133685,,,,,,,,,,,,
1736676517043,,,,,,,1.365807,3.220535,9.161683,,,,,,,,,,,,
1736676517053,,,,,,,1.283536,3.171233,9.190747,,,,,,,,,,,,
1736676517063,,,,,,,1.212955,3.128951,9.214815,,,,,,,,,,,,
1736676517073,,,,,,,1.099492,3.074336,9.24739,,,,,,,,,,,,
1736676517083,,,,,,,1.01398,3.032285,9.271005,,,,,,,,,,,,
1736676517093,,,,,,,0.91569,2.976851,9.299125,,,,,,,,,,,,
1736676517103,,,,,,,0.845002,2.926746,9.321662,,,,,,,,,,,,
1736676517113,,,,,,,0.769955,2.869727,9.345847,,,,,,,,,,,,
1736676517124,,,,,,,0.698081,2.82181,9.366072,,,,,,,,,,,,
1736676517134,,,,,,,0.635709,2.761522,9.388476,,,,,,,,,,,,
1736676517143,,,,,,,0.567463,2.717653,9.405644,,,,,,,,,,,,
1736676517153,,,,,,,0.504593,2.65804,9.426239,,,,,,,,,,,,
1736676517163,,,,,,,0.45098,2.619971,9.439601,,,,,,,,,,,,
1736676517173,,,,,,,0.371721,2.56399,9.458394,,,,,,,,,,,,
1736676517183,,,,,,,0.316822,2.521971,9.471653,,,,,,,,,,,,
1736676517193,,,,,,,0.254366,2.485975,9.483015,,,,,,,,,,,,
1736676517204,,,,,,,0.207898,2.453358,9.492613,,,,,,,,,,,,
1736676517214,,,,,,,0.160763,2.436324,9.497905,,,,,,,,,,,,
1736676517225,,,,,,,0.117561,2.426852,9.50097,,,,,,,,,,,,
1736676517235,,,,,,,0.046502,2.431155,9.500484,,,,,,,,,,,,
1736676517244,,,,,,,0.007747,2.440058,9.498293,,,,,,,,,,,,
1736676517254,,,,,,,-0.07825,2.454321,9.494274,,,,,,,,,,,,
1736676517265,,,,,,,-0.122443,2.476,9.488163,,,,,,,,,,,,
1736676517275,,,,,,,-0.177754,2.486922,9.484422,,,,,,,,,,,,
1736676517284,,,,,,,-0.221669,2.498642,9.480411,,,,,,,,,,,,
1736676517294,,,,,,,-0.226911,2.512352,9.476663,,,,,,,,,,,,
1736676517304,,,,,,,-0.245008,2.510853,9.476611,,,,,,,,,,,,
1736676517314,,,,,,,-0.230677,2.53588,9.470305,,,,,,,,,,,,
1736676517325,,,,,,,-0.218014,2.548612,9.46719,,,,,,,,,,,,
1736676517335,,,,,,,-0.206301,2.570984,9.461402,,,,,,,,,,,,
1736676517344,,,,,,,-0.1872,2.59132,9.456252,,,,,,,,,,,,
1736676517354,,,,,,,-0.177369,2.609665,9.451398,,,,,,,,,,,,
1736676517364,,,,,,,-0.165508,2.624472,9.447513,,,,,,,,,,,,
1736676517374,,,,,,,-0.133482,2.643048,9.44284,,,,,,,,,,,,
1736676517384,,,,,,,-0.118195,2.661478,9.437864,,,,,,,,,,,,
1736676517394,,,,,,,-0.076378,2.680546,9.432899,,,,,,,,,,,,
1736676517404,,,,,,,-0.045686,2.698248,9.428052,,,,,,,,,,,,
1736676517414,,,,,,,-0.006754,2.739986,9.416121,,,,,,,,,,,,
1736676517424,,,,,,,0.029858,2.773192,9.406354,,,,,,,,,,,,
1736676517435,,,,,,,0.066093,2.831238,9.38886,,,,,,,,,,,,
1736676517445,,,,,,,0.094081,2.876227,9.374932,,,,,,,,,,,,
1736676517455,,,,,,,0.125634,2.943519,9.353648,,,,,,,,,,,,
1736676517465,,,,,,,0.151747,2.994966,9.336913,,,,,,,,,,,,
1736676517475,,,,,,,0.183121,3.05314,9.317488,,,,,,,,,,,,
1736676517485,,,,,,,0.208184,3.102279,9.300713,,,,,,,,,,,,
1736676517495,,,,,,,0.215699,3.155792,9.282516,,,,,,,,,,,,
1736676517506,,,,,,,0.227368,3.19504,9.268799,,,,,,,,,,,,
1736676517516,,,,,,,0.214508,3.244019,9.252077,,,,,,,,,,,,
1736676517525,,,,,,,0.210073,3.282732,9.238512,,,,,,,,,,,,
1736676517535,,,,,,,0.187816,3.318773,9.226102,,,,,,,,,,,,
1736676517545,,,,,,,0.167911,3.353377,9.213964,,,,,,,,,,,,
1736676517556,,,,,,,0.127173,3.372511,9.207628,,,,,,,,,,,,
1736676517566,,,,,,,0.096933,3.391242,9.201115,,,,,,,,,,,,
1736676517576,,,,,,,0.064748,3.395475,9.199837,,,,,,,,,,,,
1736676517586,,,,,,,0.03309,3.395823,9.199879,,,,,,,,,,,,
1736676517596,,,,,,,0.028308,3.370835,9.209085,,,,,,,,,,,,
1736676517605,,,,,,,0.011463,3.355315,9.214792,,,,,,,,,,,,
1736676517615,,,,,,,0.016462,3.30556,9.23275,,,,,,,,,,,,
1736676517625,,,,,,,0.026417,3.272712,9.24442,,,,,,,,,,,,
1736676517635,,,,,,,0.030415,3.216487,9.264118,,,,,,,,,,,,
1736676517646,,,,,,,0.037962,3.173651,9.278851,,,,,,,,,,,,
1736676517656,,,,,,,0.055126,3.122182,9.296208,,,,,,,,,,,,
1736676517666,,,,,,,0.061545,3.081729,9.309652,,,,,,,,,,,,
1736676517676,,,,,,,0.080817,3.010136,9.3329,,,,,,,,,,,,
1736676517686,,,,,,,0.103898,2.977556,9.343114,,,,,,,,,,,,
1736676517696,,,,,,,0.131176,2.93031,9.3577,,,,,,,,,,,,
1736676517706,,,,,,,0.149926,2.885659,9.371288,,,,,,,,,,,,
1736676517716,,,,,,,0.155736,2.898465,9.367245,,,,,,,,,,,,
1736676517726,,,,,,,0.164067,2.893808,9.368545,,,,,,,,,,,,
1736676517736,,,,,,,0.161252,2.941473,9.353737,,,,,,,,,,,,
1736676517747,,,,,,,0.157368,2.969287,9.345011,,,,,,,,,,,,
1736676517757,,,,,,,0.146352,3.014237,9.330785,,,,,,,,,,,,
1736676517766,,,,,,,0.13503,3.043721,9.321377,,,,,,,,,,,,
1736676517776,,,,,,,0.116541,3.065431,9.314507,,,,,,,,,,,,
1736676517786,,,,,,,0.107683,3.086864,9.307532,,,,,,,,,,,,
1736676517796,,,,,,,0.097785,3.081436,9.309438,,,,,,,,,,,,
1736676517807,,,,,,,0.092016,3.08345,9.308833,,,,,,,,,,,,
1736676517817,,,,,,,0.111138,3.068265,9.313639,,,,,,,,,,,,
1736676517826,,,,,,,0.112933,3.058523,9.316817,,,,,,,,,,,,
1736676517836,,,,,,,0.132792,3.048489,9.319843,,,,,,,,,,,,
1736676517846,,,,,,,0.147831,3.044857,9.320806,,,,,,,,,,,,
1736676517856,,,,,,,0.152953,3.042576,9.321467,,,,,,,,,,,,
1736676517867,,,,,,,0.163493,3.038964,9.32247,,,,,,,,,,,,
1736676517877,,,,,,,0.163972,3.043448,9.320997,,,,,,,,,,,,
1736676517886,,,,,,,0.164804,3.04295,9.321143,,,,,,,,,,,,
1736676517897,,,,,,,0.177754,3.046962,9.319596,,,,,,,,,,,,
1736676517907,,,,,,,0.179277,3.047956,9.319241,,,,,,,,,,,,
1736676517917,,,,,,,0.18347,3.042257,9.321023,,,,,,,,,,,,
1736676517927,,,,,,,0.190465,3.041712,9.321059,,,,,,,,,,,,
1736676517937,,,,,,,0.183416,3.036392,9.322934,,,,,,,,,,,,
1736676517947,,,,,,,0.188192,3.033418,9.323808,,,,,,,,,,,,
1736676517957,,,,,,,0.183775,3.036497,9.322892,,,,,,,,,,,,
1736676517968,,,,,,,0.181403,3.03687,9.322819,,,,,,,,,,,,
1736676517978,,,,,,,0.169314,3.055542,9.316943,,,,,,,,,,,,
1736676517987,,,,,,,0.161452,3.064634,9.314095,,,,,,,,,,,,
1736676517997,,,,,,,0.150947,3.087903,9.306584,,,,,,,,,,,,
1736676518008,,,,,,,0.138063,3.104388,9.301297,,,,,,,,,,,,
1736676518018,,,,,,,0.129279,3.115398,9.297741,,,,,,,,,,,,
1736676518028,,,,,,,0.124543,3.128611,9.293366,,,,,,,,,,,,
1736676518038,,,,,,,0.123126,3.130169,9.292861,,,,,,,,,,,,
1736676518047,,,,,,,0.119789,3.133912,9.291643,,,,,,,,,,,,
1736676518057,,,,,,,0.1253,3.137285,9.290434,,,,,,,,,,,,
1736676518067,,,,,,,0.126357,3.135338,9.291075,,,,,,,,,,,,
1736676518077,,,,,,,0.122619,3.141561,9.289023,,,,,,,,,,,,
1736676518087,,,,,,,0.122415,3.147472,9.287023,,,,,,,,,,,,
1736676518097,,,,,,,0.109281,3.154734,9.284724,,,,,,,,,,,,
1736676518107,,,,,,,0.103485,3.159105,9.283303,,,,,,,,,,,,
1736676518117,,,,,,,0.09856,3.165872,9.281052,,,,,,,,,,,,
1736676518129,,,,,,,0.092306,3.169151,9.279998,,,,,,,,,,,,
1736676518139,,,,,,,0.097803,3.168299,9.280231,,,,,,,,,,,,
1736676518148,,,,,,,0.099726,3.170735,9.27938,,,,,,,,,,,,
1736676518158,,,,,,,0.099051,3.157733,9.283821,,,,,,,,,,,,
1736676518169,,,,,,,0.097401,3.152887,9.285484,,,,,,,,,,,,
1736676518179,,,,,,,0.093059,3.141373,9.28943,,,,,,,,,,,,
1736676518188,,,,,,,0.092645,3.129834,9.293327,,,,,,,,,,,,
1736676518198,,,,,,,0.089866,3.132176,9.292567,,,,,,,,,,,,
1736676518208,,,,,,,0.089045,3.125473,9.294832,,,,,,,,,,,,
1736676518218,,,,,,,0.084347,3.13676,9.291071,,,,,,,,,,,,
1736676518229,,,,,,,0.080854,3.140704,9.289771,,,,,,,,,,,,
1736676518239,,,,,,,0.084009,3.139409,9.290182,,,,,,,,,,,,
1736676518248,,,,,,,0.083939,3.147162,9.287559,,,,,,,,,,,,
1736676518258,,,,,,,0.086958,3.138708,9.290392,,,,,,,,,,,,
1736676518268,,,,,,,0.088441,3.1366,9.291089,,,,,,,,,,,,
1736676518278,,,,,,,0.084851,3.124657,9.295146,,,,,,,,,,,,
1736676518288,,,,,,,0.08225,3.119409,9.296931,,,,,,,,,,,,
1736676518298,,,,,,,0.083037,3.107252,9.300994,,,,,,,,,,,,
1736676518309,,,,,,,0.080667,3.097538,9.304254,,,,,,,,,,,,
1736676518319,,,,,,,0.094008,3.092805,9.305702,,,,,,,,,,,,
1736676518329,,,,,,,0.104814,3.084307,9.308409,,,,,,,,,,,,
1736676518338,,,,,,,0.115458,3.085023,9.308044,,,,,,,,,,,,
1736676518349,,,,,,,0.128979,3.083977,9.308213,,,,,,,,,,,,
1736676518360,,,,,,,0.123044,3.081023,9.309273,,,,,,,,,,,,
1736676518369,,,,,,,0.120656,3.079853,9.309691,,,,,,,,,,,,
1736676518379,,,,,,,0.104968,3.079737,9.309919,,,,,,,,,,,,
1736676518390,,,,,,,0.087755,3.079001,9.310341,,,,,,,,,,,,
1736676518400,,,,,,,0.079377,3.084941,9.308449,,,,,,,,,,,,
1736676518410,,,,,,,0.074928,3.08728,9.307711,,,,,,,,,,,,
1736676518420,,,,,,,0.070227,3.096307,9.304748,,,,,,,,,,,,
1736676518430,,,,,,,0.067028,3.102077,9.30285,,,,,,,,,,,,
1736676518440,,,,,,,0.057186,3.110264,9.300181,,,,,,,,,,,,
1736676518449,,,,,,,0.052582,3.120645,9.29673,,,,,,,,,,,,
1736676518459,,,,,,,0.039589,3.119354,9.297228,,,,,,,,,,,,
1736676518469,,,,,,,0.028881,3.121693,9.296482,,,,,,,,,,,,
1736676518479,,,,,,,0.025242,3.119269,9.297308,,,,,,,,,,,,
1736676516732,,,,,,,,,,-0.348425,0.76147497,-0.0556875,,,,,,,,,
1736676516742,,,,,,,,,,-0.35694999,0.7720625,-0.0290125,,,,,,,,,
1736676516752,,,,,,,,,,-0.3399,0.7624375,0.012375,,,,,,,,,
1736676516762,,,,,,,,,,-0.3441625,0.8210125,0.063525,,,,,,,,,
1736676516772,,,,,,,,,,-0.379225,0.88385,0.10505,,,,,,,,,
1736676516782,,,,,,,,,,-0.41854998,0.9263375,0.10395,,,,,,,,,
1736676516792,,,,,,,,,,-0.45485,0.9977,0.0666875,,,,,,,,,
1736676516802,,,,,,,,,,-0.4802875,1.04775,0.0209,,,,,,,,,
1736676516812,,,,,,,,,,-0.495275,1.0891374,-0.0163625,,,,,,,,,
1736676516822,,,,,,,,,,-0.494175,1.1573375,-0.0408375,,,,,,,,,
1736676516833,,,,,,,,,,-0.479325,1.2211375,-0.052525,,,,,,,,,
1736676516843,,,,,,,,,,-0.4569125,1.2552375,-0.051425,,,,,,,,,
1736676516852,,,,,,,,,,-0.4398625,1.266925,-0.0375375,,,,,,,,,
1736676516863,,,,,,,,,,-0.42185,1.2370875,-0.0121,,,,,,,,,
1736676516873,,,,,,,,,,-0.412225,1.1743875,0.015675,,,,,,,,,
1736676516883,,,,,,,,,,-0.413325,1.0891374,0.045375,,,,,,,,,
1736676516893,,,,,,,,,,-0.429275,1.022175,0.0592625,,,,,,,,,
1736676516902,,,,,,,,,,-0.4643375,0.9945375,0.0539,,,,,,,,,
1736676516912,,,,,,,,,,-0.4995375,0.98065,0.0411125,,,,,,,,,
1736676516922,,,,,,,,,,-0.5303375,0.9625,0.0347875,,,,,,,,,
1736676516932,,,,,,,,,,-0.5622375,0.99027497,0.0347875,,,,,,,,,
1736676516942,,,,,,,,,,-0.5995,1.04775,0.0444125,,,,,,,,,
1736676516952,,,,,,,,,,-0.6356625,1.0902375,0.0570625,,,,,,,,,
1736676516963,,,,,,,,,,-0.659175,1.0934,0.07315,,,,,,,,,
1736676516973,,,,,,,,,,-0.6760875,1.0902375,0.088,,,,,,,,,
1736676516983,,,,,,,,,,-0.68035,1.0561374,0.0985875,,,,,,,,,
1736676516993,,,,,,,,,,-0.6708625,1.0082875,0.0996875,,,,,,,,,
1736676517003,,,,,,,,,,-0.6463875,0.986975,0.078375,,,,,,,,,
1736676517013,,,,,,,,,,-0.6111875,0.922075,0.045375,,,,,,,,,
1736676517023,,,,,,,,,,-0.5698,0.81565,0.014575,,,,,,,,,
1736676517033,,,,,,,,,,-0.5335,0.7624375,-0.011,,,,,,,,,
1736676517044,,,,,,,,,,-0.509025,0.7783875,-0.034375,,,,,,,,,
1736676517054,,,,,,,,,,-0.4962375,0.8284375,-0.049225,,,,,,,,,
1736676517063,,,,,,,,,,-0.4835875,0.891275,-0.061049998,,,,,,,,,
1736676517073,,,,,,,,,,-0.4802875,0.923175,-0.058849998,,,,,,,,,
1736676517083,,,,,,,,,,-0.494175,0.890175,-0.051425,,,,,,,,,
1736676517093,,,,,,,,,,-0.5132875,0.7869125,-0.0312125,,,,,,,,,
1736676517103,,,,,,,,,,-0.527175,0.671,-0.002475,,,,,,,,,
1736676517113,,,,,,,,,,-0.5314375,0.62095,0.031625,,,,,,,,,
1736676517124,,,,,,,,,,-0.5303375,0.660275,0.063525,,,,,,,,,
1736676517134,,,,,,,,,,-0.512325,0.7337,0.0763125,,,,,,,,,
1736676517143,,,,,,,,,,-0.4728625,0.7965375,0.07205,,,,,,,,,
1736676517153,,,,,,,,,,-0.412225,0.826375,0.0518375,,,,,,,,,
1736676517163,,,,,,,,,,-0.346225,0.8454875,0.022,,,,,,,,,
1736676517173,,,,,,,,,,-0.297275,0.825275,-0.013062499,,,,,,,,,
1736676517183,,,,,,,,,,-0.25685,0.7539125,-0.0471625,,,,,,,,,
1736676517193,,,,,,,,,,-0.22495,0.6667375,-0.0790625,,,,,,,,,
1736676517204,,,,,,,,,,-0.1865875,0.5762625,-0.1035375,,,,,,,,,
1736676517214,,,,,,,,,,-0.132275,0.5495875,-0.118525,,,,,,,,,
1736676517224,,,,,,,,,,-0.0642125,0.597575,-0.12595,,,,,,,,,
1736676517234,,,,,,,,,,0.0166375,0.6061,-0.1205875,,,,,,,,,
1736676517244,,,,,,,,,,0.0996875,0.514525,-0.0972125,,,,,,,,,
1736676517254,,,,,,,,,,0.1656875,0.382525,-0.069575,,,,,,,,,
1736676517264,,,,,,,,,,0.2028125,0.2431,-0.051425,,,,,,,,,
1736676517274,,,,,,,,,,0.20927499,0.105875,-0.0451,,,,,,,,,
1736676517284,,,,,,,,,,0.1901625,0.0154,-0.0653125,,,,,,,,,
1736676517294,,,,,,,,,,0.1560625,-0.0356125,-0.1131625,,,,,,,,,
1736676517305,,,,,,,,,,0.1219625,-0.072875,-0.1535875,,,,,,,,,
1736676517315,,,,,,,,,,0.093225,-0.10065,-0.1780625,,,,,,,,,
1736676517324,,,,,,,,,,0.07095,-0.1271875,-0.1843875,,,,,,,,,
1736676517334,,,,,,,,,,0.0570625,-0.1612875,-0.1749,,,,,,,,,
1736676517344,,,,,,,,,,0.0433125,-0.2028125,-0.1632125,,,,,,,,,
1736676517354,,,,,,,,,,0.029424999,-0.2410375,-0.1546875,,,,,,,,,
1736676517365,,,,,,,,,,0.0188375,-0.2580875,-0.1472625,,,,,,,,,
1736676517375,,,,,,,,,,0.0177375,-0.2569875,-0.1419,,,,,,,,,
1736676517384,,,,,,,,,,0.036849998,-0.2410375,-0.1472625,,,,,,,,,
1736676517394,,,,,,,,,,0.07095,-0.23155,-0.164175,,,,,,,,,
1736676517404,,,,,,,,,,0.111375,-0.23045,-0.1802625,,,,,,,,,
1736676517414,,,,,,,,,,0.1529,-0.2475,-0.19085,,,,,,,,,
1736676517425,,,,,,,,,,0.1859,-0.26455,-0.19085,,,,,,,,,
1736676517436,,,,,,,,,,0.20927499,-0.253825,-0.181225,,,,,,,,,
1736676517445,,,,,,,,,,0.2189,-0.221925,-0.164175,,,,,,,,,
1736676517455,,,,,,,,,,0.21779999,-0.19745,-0.1461625,,,,,,,,,
1736676517465,,,,,,,,,,0.2061125,-0.19745,-0.1408,,,,,,,,,
1736676517475,,,,,,,,,,0.1848,-0.19635,-0.1439625,,,,,,,,,
1736676517485,,,,,,,,,,0.1560625,-0.16335,-0.1632125,,,,,,,,,
1736676517495,,,,,,,,,,0.1188,-0.121825,-0.1865875,,,,,,,,,
1736676517505,,,,,,,,,,0.0826375,-0.1016125,-0.198275,,,,,,,,,
1736676517515,,,,,,,,,,0.047575,-0.0963875,-0.1940125,,,,,,,,,
1736676517526,,,,,,,,,,0.0198,-0.082499996,-0.1706375,,,,,,,,,
1736676517536,,,,,,,,,,0.00275,-0.0356125,-0.1419,,,,,,,,,
1736676517546,,,,,,,,,,-0.003575,0.0281875,-0.1142625,,,,,,,,,
1736676517556,,,,,,,,,,-0.0099,0.071775,-0.083325,,,,,,,,,
1736676517566,,,,,,,,,,-0.0323125,0.088825,-0.0482625,,,,,,,,,
1736676517576,,,,,,,,,,-0.077,0.0834625,-0.0088,,,,,,,,,
1736676517586,,,,,,,,,,-0.134475,0.0803,0.031625,,,,,,,,,
1736676517596,,,,,,,,,,-0.1865875,0.103675,0.0561,,,,,,,,,
1736676517605,,,,,,,,,,-0.22385,0.1155,0.0666875,,,,,,,,,
1736676517615,,,,,,,,,,-0.2398,0.089925,0.0666875,,,,,,,,,
1736676517625,,,,,,,,,,-0.2355375,0.0452375,0.063525,,,,,,,,,
1736676517635,,,,,,,,,,-0.215325,0.0133375,0.0677875,,,,,,,,,
1736676517646,,,,,,,,,,-0.19085,-0.0048125,0.0741125,,,,,,,,,
1736676517656,,,,,,,,,,-0.165275,-0.0037125,0.079475,,,,,,,,,
1736676517666,,,,,,,,,,-0.1376375,0.0111375,0.078375,,,,,,,,,
1736676517676,,,,,,,,,,-0.0983125,0.0100375,0.0655875,,,,,,,,,
1736676517686,,,,,,,,,,-0.020624999,-0.0633875,0.036849998,,,,,,,,,
1736676517696,,,,,,,,,,0.0826375,-0.1186625,-0.004675,,,,,,,,,
1736676517707,,,,,,,,,,0.1709125,-0.0878625,-0.036575,,,,,,,,,
1736676517717,,,,,,,,,,0.2369125,-0.039875,-0.0386375,,,,,,,,,
1736676517726,,,,,,,,,,0.275275,-0.0133375,-0.018424999,,,,,,,,,
1736676517736,,,,,,,,,,0.276375,0.0143,0.0028875,,,,,,,,,
1736676517746,,,,,,,,,,0.2443375,0.0589875,0.0231,,,,,,,,,
1736676517756,,,,,,,,,,0.1879625,0.104775,0.0336875,,,,,,,,,
1736676517766,,,,,,,,,,0.1230625,0.1324125,0.046475,,,,,,,,,
1736676517776,,,,,,,,,,0.060225,0.1357125,0.07095,,,,,,,,,
1736676517787,,,,,,,,,,0.0070125,0.1027125,0.096525,,,,,,,,,
1736676517797,,,,,,,,,,-0.035475,0.0537625,0.1167375,,,,,,,,,
1736676517806,,,,,,,,,,-0.058849998,0.0100375,0.1252625,,,,,,,,,
1736676517816,,,,,,,,,,-0.05995,-0.00275,0.1145375,,,,,,,,,
1736676517826,,,,,,,,,,-0.036575,0.0174625,0.0922625,,,,,,,,,
1736676517836,,,,,,,,,,0.0070125,0.0430375,0.0644875,,,,,,,,,
1736676517846,,,,,,,,,,0.0539,0.055825,0.03795,,,,,,,,,
1736676517856,,,,,,,,,,0.0837375,0.0600875,0.0240625,,,,,,,,,
1736676517867,,,,,,,,,,0.0974875,0.0515625,0.0273625,,,,,,,,,
1736676517877,,,,,,,,,,0.0922625,0.0356125,0.036849998,,,,,,,,,
1736676517886,,,,,,,,,,0.06985,0.032449998,0.0485375,,,,,,,,,
1736676517898,,,,,,,,,,0.045375,0.0484,0.0539,,,,,,,,,
1736676517907,,,,,,,,,,0.028324999,0.0856625,0.0485375,,,,,,,,,
1736676517917,,,,,,,,,,0.0262625,0.1144,0.039049998,,,,,,,,,
1736676517928,,,,,,,,,,0.03575,0.1079375,0.028324999,,,,,,,,,
1736676517938,,,,,,,,,,0.0570625,0.070675,0.0198,,,,,,,,,
1736676517947,,,,,,,,,,0.078375,0.0281875,0.012375,,,,,,,,,
1736676517957,,,,,,,,,,0.094325,0.0048125,0.00495,,,,,,,,,
1736676517967,,,,,,,,,,0.10285,-0.00165,-0.003575,,,,,,,,,
1736676517977,,,,,,,,,,0.1082125,0.0037125,-0.004675,,,,,,,,,
1736676517988,,,,,,,,,,0.1060125,0.009075,-4.125E-4,,,,,,,,,
1736676517998,,,,,,,,,,0.0985875,0.0207625,0.0081124995,,,,,,,,,
1736676518007,,,,,,,,,,0.086899996,0.039875,0.014575,,,,,,,,,
1736676518017,,,,,,,,,,0.0741125,0.0430375,0.0198,,,,,,,,,
1736676518028,,,,,,,,,,0.0581625,0.0207625,0.0240625,,,,,,,,,
1736676518038,,,,,,,,,,0.0485375,-0.0122375,0.0251625,,,,,,,,,
1736676518047,,,,,,,,,,0.0400125,-0.0218625,0.0209,,,,,,,,,
1736676518057,,,,,,,,,,0.029424999,-0.010175,0.0092124995,,,,,,,,,
1736676518067,,,,,,,,,,0.0209,0.006875,0.0028875,,,,,,,,,
1736676518077,,,,,,,,,,0.0155375,0.0185625,0.00605,,,,,,,,,
1736676518087,,,,,,,,,,0.0092124995,0.0281875,0.0114124995,,,,,,,,,
1736676518097,,,,,,,,,,0.00605,0.0345125,0.0209,,,,,,,,,
1736676518108,,,,,,,,,,-0.0015125,0.0281875,0.031625,,,,,,,,,
1736676518118,,,,,,,,,,-0.0163625,0.0154,0.0400125,,,,,,,,,
1736676518128,,,,,,,,,,-0.02805,0.0026125,0.0400125,,,,,,,,,
1736676518139,,,,,,,,,,-0.036575,-0.00275,0.0347875,,,,,,,,,
1736676518148,,,,,,,,,,-0.037675,0.009075,0.029424999,,,,,,,,,
1736676518158,,,,,,,,,,-0.0312125,0.03135,0.0209,,,,,,,,,
1736676518168,,,,,,,,,,-0.0226875,0.0356125,0.013475,,,,,,,,,
1736676518178,,,,,,,,,,-0.0163625,0.0259875,0.00605,,,,,,,,,
1736676518189,,,,,,,,,,-0.019524999,0.0143,-4.125E-4,,,,,,,,,
1736676518199,,,,,,,,,,-0.0248875,0.0015125,6.875E-4,,,,,,,,,
1736676518208,,,,,,,,,,-0.0386375,-0.00275,0.00385,,,,,,,,,
1736676518218,,,,,,,,,,-0.0567875,5.5E-4,0.0155375,,,,,,,,,
1736676518228,,,,,,,,,,-0.0727375,-0.0037125,0.028324999,,,,,,,,,
1736676518238,,,,,,,,,,-0.0749375,-0.009075,0.0325875,,,,,,,,,
1736676518248,,,,,,,,,,-0.0631125,5.5E-4,0.0325875,,,,,,,,,
1736676518258,,,,,,,,,,-0.0408375,0.0165,0.0325875,,,,,,,,,
1736676518268,,,,,,,,,,-0.0099,0.038775,0.0347875,,,,,,,,,
1736676518278,,,,,,,,,,0.0188375,0.055825,0.036849998,,,,,,,,,
1736676518289,,,,,,,,,,0.03795,0.0622875,0.039049998,,,,,,,,,
1736676518299,,,,,,,,,,0.045375,0.0537625,0.0336875,,,,,,,,,
1736676518308,,,,,,,,,,0.044275,0.03355,0.0198,,,,,,,,,
1736676518318,,,,,,,,,,0.036849998,0.007975,0.0028875,,,,,,,,,
1736676518329,,,,,,,,,,0.027224999,-0.0229625,-0.015262499,,,,,,,,,
1736676518339,,,,,,,,,,0.0166375,-0.0441375,-0.02585,,,,,,,,,
1736676518349,,,,,,,,,,0.0103124995,-0.039875,-0.02915,,,,,,,,,
1736676518360,,,,,,,,,,0.0103124995,-0.0122375,-0.02805,,,,,,,,,
1736676518369,,,,,,,,,,0.013475,0.022824999,-0.020624999,,,,,,,,,
1736676518379,,,,,,,,,,0.0166375,0.0622875,-0.0099,,,,,,,,,
1736676518389,,,,,,,,,,0.0198,0.0814,-0.003575,,,,,,,,,
1736676518399,,,,,,,,,,0.0209,0.0622875,-0.001375,,,,,,,,,
1736676518409,,,,,,,,,,0.0177375,0.0292875,-0.003575,,,,,,,,,
1736676518419,,,,,,,,,,0.0155375,0.005775,-0.0067375,,,,,,,,,
1736676518429,,,,,,,,,,0.013475,0.0026125,-0.0078375,,,,,,,,,
1736676518439,,,,,,,,,,0.014575,0.0037125,-0.0067375,,,,,,,,,
1736676518449,,,,,,,,,,0.0166375,0.0037125,-0.003575,,,,,,,,,
1736676518459,,,,,,,,,,0.0198,0.0026125,-0.004675,,,,,,,,,
1736676518470,,,,,,,,,,0.0231,0.0026125,-0.002475,,,,,,,,,
1736676518480,,,,,,,,,,0.0240625,0.007975,0.00385,,,,,,,,,
1736676516742,,,,,,,,,,,,,-0.346016,-0.059977,-0.198921,,,,,,
1736676516752,,,,,,,,,,,,,-0.471987,-0.174875,-0.32261,,,,,,
1736676516762,,,,,,,,,,,,,-0.476155,-0.111236,-0.171062,,,,,,
1736676516772,,,,,,,,,,,,,-0.047487,-0.35569,-0.282453,,,,,,
1736676516782,,,,,,,,,,,,,-0.044389,-0.171911,-0.420518,,,,,,
1736676516792,,,,,,,,,,,,,-0.10123,-0.451338,0.011231,,,,,,
1736676516802,,,,,,,,,,,,,0.080645,-0.312226,-0.283643,,,,,,
1736676516812,,,,,,,,,,,,,-0.177169,-0.325451,0.236399,,,,,,
1736676516822,,,,,,,,,,,,,0.069818,-0.270529,-0.062355,,,,,,
1736676516833,,,,,,,,,,,,,-0.436869,-0.223811,0.565375,,,,,,
1736676516843,,,,,,,,,,,,,-0.050747,-0.118704,0.245694,,,,,,
1736676516852,,,,,,,,,,,,,-0.435453,-0.128797,0.646163,,,,,,
1736676516862,,,,,,,,,,,,,-0.50069,-0.250658,0.551161,,,,,,
1736676516872,,,,,,,,,,,,,-0.303483,-0.091638,0.542169,,,,,,
1736676516882,,,,,,,,,,,,,-0.063182,-0.366479,0.037714,,,,,,
1736676516892,,,,,,,,,,,,,-0.099052,-0.182249,0.194149,,,,,,
1736676516902,,,,,,,,,,,,,0.13001,-0.243174,-0.049077,,,,,,
1736676516912,,,,,,,,,,,,,0.26579,-0.249223,-0.172212,,,,,,
1736676516922,,,,,,,,,,,,,-0.096493,-0.106105,-0.173075,,,,,,
1736676516932,,,,,,,,,,,,,0.157013,-0.052635,-0.227652,,,,,,
1736676516942,,,,,,,,,,,,,-0.256957,-0.025207,0.142254,,,,,,
1736676516952,,,,,,,,,,,,,0.017612,0.059706,-0.172257,,,,,,
1736676516964,,,,,,,,,,,,,-0.201491,-0.041028,0.32124,,,,,,
1736676516974,,,,,,,,,,,,,-0.077463,0.115212,0.133453,,,,,,
1736676516984,,,,,,,,,,,,,-0.006509,-0.136232,0.416879,,,,,,
1736676516994,,,,,,,,,,,,,0.131562,0.078634,0.33887,,,,,,
1736676517003,,,,,,,,,,,,,-0.043922,-0.085037,0.497536,,,,,,
1736676517013,,,,,,,,,,,,,0.172039,0.023688,0.366497,,,,,,
1736676517024,,,,,,,,,,,,,-0.038849,-0.085576,0.177515,,,,,,
1736676517034,,,,,,,,,,,,,0.079176,0.060065,0.273218,,,,,,
1736676517043,,,,,,,,,,,,,-0.035909,-0.008224,0.151843,,,,,,
1736676517053,,,,,,,,,,,,,0.168469,0.043472,0.048555,,,,,,
1736676517063,,,,,,,,,,,,,-0.297269,-0.093817,0.189693,,,,,,
1736676517073,,,,,,,,,,,,,5.53E-4,0.087694,0.140358,,,,,,
1736676517083,,,,,,,,,,,,,-0.261105,-0.006728,0.339412,,,,,,
1736676517093,,,,,,,,,,,,,-0.079016,0.043916,0.189184,,,,,,
1736676517103,,,,,,,,,,,,,-0.195081,-0.01851,0.260024,,,,,,
1736676517113,,,,,,,,,,,,,-0.11764,0.119914,0.310061,,,,,,
1736676517124,,,,,,,,,,,,,0.073947,-0.054837,0.325751,,,,,,
1736676517134,,,,,,,,,,,,,0.069279,0.070096,0.190814,,,,,,
1736676517143,,,,,,,,,,,,,0.202171,-0.091943,0.623773,,,,,,
1736676517153,,,,,,,,,,,,,0.339264,0.068229,0.473887,,,,,,
1736676517163,,,,,,,,,,,,,0.019368,-0.171438,0.735868,,,,,,
1736676517173,,,,,,,,,,,,,0.242285,-0.062783,0.638063,,,,,,
1736676517183,,,,,,,,,,,,,0.057755,7.84E-4,0.754096,,,,,,
1736676517193,,,,,,,,,,,,,0.153731,-0.006316,0.747522,,,,,,
1736676517204,,,,,,,,,,,,,0.11161,0.095735,0.608633,,,,,,
1736676517214,,,,,,,,,,,,,0.218602,0.124739,0.667986,,,,,,
1736676517225,,,,,,,,,,,,,-0.123675,0.265897,0.901956,,,,,,
1736676517235,,,,,,,,,,,,,0.160475,0.177794,0.725264,,,,,,
1736676517244,,,,,,,,,,,,,-0.600461,0.15692,0.684359,,,,,,
1736676517254,,,,,,,,,,,,,-0.26067,0.259978,0.872737,,,,,,
1736676517265,,,,,,,,,,,,,-0.525339,-0.070564,0.15338,,,,,,
1736676517275,,,,,,,,,,,,,-0.510731,0.050199,0.492321,,,,,,
1736676517284,,,,,,,,,,,,,-0.059787,-0.076446,-0.253079,,,,,,
1736676517294,,,,,,,,,,,,,-0.2413,-0.178745,-0.088913,,,,,,
1736676517304,,,,,,,,,,,,,0.111997,0.136404,-0.249279,,,,,,
1736676517314,,,,,,,,,,,,,0.06654,0.008424,-0.259734,,,,,,
1736676517324,,,,,,,,,,,,,0.015568,0.144137,-0.254223,,,,,,
1736676517334,,,,,,,,,,,,,0.051741,0.138526,-0.238859,,,,,,
1736676517344,,,,,,,,,,,,,-0.094257,0.089458,-0.377366,,,,,,
1736676517354,,,,,,,,,,,,,-0.094511,0.087873,-0.274346,,,,,,
1736676517364,,,,,,,,,,,,,0.135451,0.106586,-0.363838,,,,,,
1736676517374,,,,,,,,,,,,,-0.035443,0.078433,-0.378319,,,,,,
1736676517385,,,,,,,,,,,,,0.279681,0.057609,-0.335035,,,,,,
1736676517395,,,,,,,,,,,,,0.158852,-0.002162,-0.320493,,,,,,
1736676517404,,,,,,,,,,,,,0.235903,0.20041,-0.461697,,,,,,
1736676517414,,,,,,,,,,,,,0.192182,0.082055,-0.377938,,,,,,
1736676517424,,,,,,,,,,,,,0.191484,0.261941,-0.669851,,,,,,
1736676517435,,,,,,,,,,,,,0.128911,0.129672,-0.549403,,,,,,
1736676517445,,,,,,,,,,,,,0.187118,0.357631,-0.681527,,,,,,
1736676517455,,,,,,,,,,,,,0.12444,0.189779,-0.633905,,,,,,
1736676517465,,,,,,,,,,,,,0.179732,0.236498,-0.791953,,,,,,
1736676517475,,,,,,,,,,,,,0.153146,0.195085,-0.683939,,,,,,
1736676517485,,,,,,,,,,,,,0.013158,0.291996,-0.674346,,,,,,
1736676517495,,,,,,,,,,,,,0.079866,0.133135,-0.727978,,,,,,
1736676517506,,,,,,,,,,,,,-0.178414,0.381201,-0.505959,,,,,,
1736676517516,,,,,,,,,,,,,-0.079359,0.262788,-0.556277,,,,,,
1736676517525,,,,,,,,,,,,,-0.237736,0.274355,-0.490037,,,,,,
1736676517535,,,,,,,,,,,,,-0.155621,0.281411,-0.448896,,,,,,
1736676517545,,,,,,,,,,,,,-0.353597,0.115122,-0.38169,,,,,,
1736676517555,,,,,,,,,,,,,-0.231453,0.122325,-0.420846,,,,,,
1736676517565,,,,,,,,,,,,,-0.275436,0.065285,-0.222788,,,,,,
1736676517576,,,,,,,,,,,,,-0.286348,0.051475,-0.307705,,,,,,
1736676517586,,,,,,,,,,,,,0.032624,-0.140415,-0.104232,,,,,,
1736676517596,,,,,,,,,,,,,-0.096674,-0.002895,-0.190056,,,,,,
1736676517605,,,,,,,,,,,,,0.130868,-0.296238,0.199294,,,,,,
1736676517615,,,,,,,,,,,,,0.140234,-0.133953,0.03289,,,,,,
1736676517625,,,,,,,,,,,,,0.036903,-0.378841,0.298956,,,,,,
1736676517635,,,,,,,,,,,,,0.056847,-0.250788,0.238555,,,,,,
1736676517646,,,,,,,,,,,,,0.171409,-0.373158,0.310018,,,,,,
1736676517656,,,,,,,,,,,,,0.060868,-0.276197,0.263929,,,,,,
1736676517666,,,,,,,,,,,,,0.229231,-0.599676,0.772439,,,,,,
1736676517676,,,,,,,,,,,,,0.193199,-0.305414,0.30146,,,,,,
1736676517686,,,,,,,,,,,,,0.208427,-0.507474,0.760526,,,,,,
1736676517696,,,,,,,,,,,,,0.157207,-0.536846,0.973397,,,,,,
1736676517706,,,,,,,,,,,,,0.042685,-0.030097,0.306169,,,,,,
1736676517716,,,,,,,,,,,,,0.099126,-0.2536,0.492178,,,,,,
1736676517726,,,,,,,,,,,,,-0.021735,0.184422,-0.287264,,,,,,
1736676517736,,,,,,,,,,,,,0.012205,0.079294,0.045983,,,,,,
1736676517747,,,,,,,,,,,,,-0.03419,0.128098,-0.644422,,,,,,
1736676517757,,,,,,,,,,,,,-0.011203,0.061598,-0.49851,,,,,,
1736676517766,,,,,,,,,,,,,-0.095653,0.048874,-0.462765,,,,,,
1736676517776,,,,,,,,,,,,,-0.031672,0.060684,-0.592371,,,,,,
1736676517786,,,,,,,,,,,,,-0.099432,-0.070885,-0.135269,,,,,,
1736676517796,,,,,,,,,,,,,-0.101505,-0.012782,-0.326323,,,,,,
1736676517807,,,,,,,,,,,,,0.184395,-0.057893,0.201024,,,,,,
1736676517817,,,,,,,,,,,,,0.007249,-0.069046,0.035801,,,,,,
1736676517826,,,,,,,,,,,,,0.268826,-0.02339,0.358245,,,,,,
1736676517836,,,,,,,,,,,,,0.234601,-0.006172,0.328883,,,,,,
1736676517846,,,,,,,,,,,,,0.116608,-0.119861,0.028635,,,,,,
1736676517856,,,,,,,,,,,,,0.176132,-0.091243,0.229092,,,,,,
1736676517867,,,,,,,,,,,,,0.024329,-0.15467,-0.3202,,,,,,
1736676517877,,,,,,,,,,,,,0.02385,-0.142395,-0.167888,,,,,,
1736676517886,,,,,,,,,,,,,0.171464,-0.117954,-0.359577,,,,,,
1736676517897,,,,,,,,,,,,,0.081897,-0.150697,-0.403522,,,,,,
1736676517908,,,,,,,,,,,,,0.154597,-0.139719,-0.115852,,,,,,
1736676517917,,,,,,,,,,,,,0.179135,-0.126838,-0.244531,,,,,,
1736676517927,,,,,,,,,,,,,-0.012219,-0.123898,0.040351,,,,,,
1736676517937,,,,,,,,,,,,,0.081023,-0.132944,-0.004619,,,,,,
1736676517947,,,,,,,,,,,,,-0.050649,-0.120393,-0.146756,,,,,,
1736676517957,,,,,,,,,,,,,-0.029472,-0.133049,-0.04528,,,,,,
1736676517967,,,,,,,,,,,,,-0.137237,-0.008919,-0.35407,,,,,,
1736676517977,,,,,,,,,,,,,-0.084445,-0.097026,-0.264394,,,,,,
1736676517987,,,,,,,,,,,,,-0.105315,0.04951,-0.383655,,,,,,
1736676517997,,,,,,,,,,,,,-0.113964,-0.01925,-0.373749,,,,,,
1736676518008,,,,,,,,,,,,,-0.065165,-0.038129,-0.270297,,,,,,
1736676518018,,,,,,,,,,,,,-0.04441,-0.008436,-0.319415,,,,,,
1736676518028,,,,,,,,,,,,,-0.042068,-0.141363,-0.310252,,,,,,
1736676518038,,,,,,,,,,,,,-0.071777,-0.08067,-0.240312,,,,,,
1736676518047,,,,,,,,,,,,,0.041696,-0.146664,-0.459368,,,,,,
1736676518057,,,,,,,,,,,,,0.012242,-0.185951,-0.407879,,,,,,
1736676518067,,,,,,,,,,,,,-0.029517,-0.06429,-0.367817,,,,,,
1736676518077,,,,,,,,,,,,,0.017318,-0.087274,-0.444777,,,,,,
1736676518087,,,,,,,,,,,,,-0.123741,-0.011778,-0.284753,,,,,,
1736676518097,,,,,,,,,,,,,-0.05075,-0.047772,-0.308793,,,,,,
1736676518107,,,,,,,,,,,,,-0.056925,0.014896,-0.266669,,,,,,
1736676518117,,,,,,,,,,,,,-0.08552,-0.027784,-0.300332,,,,,,
1736676518129,,,,,,,,,,,,,0.045236,-0.043035,-0.222661,,,,,,
1736676518139,,,,,,,,,,,,,0.018191,-0.015846,-0.268385,,,,,,
1736676518148,,,,,,,,,,,,,0.016268,-0.173911,-0.131059,,,,,,
1736676518158,,,,,,,,,,,,,0.012153,-0.093868,-0.17381,,,,,,
1736676518169,,,,,,,,,,,,,-0.026898,-0.208736,-0.242512,,,,,,
1736676518179,,,,,,,,,,,,,0.008569,-0.180462,-0.167447,,,,,,
1736676518189,,,,,,,,,,,,,-0.034113,-0.104278,-0.480207,,,,,,
1736676518199,,,,,,,,,,,,,-0.016969,-0.159294,-0.357338,,,,,,
1736676518208,,,,,,,,,,,,,-0.061639,0.019797,-0.548752,,,,,,
1736676518218,,,,,,,,,,,,,-0.056941,-0.053741,-0.549779,,,,,,
1736676518228,,,,,,,,,,,,,0.011197,-0.062473,-0.395245,,,,,,
1736676518238,,,,,,,,,,,,,-0.015901,-0.00611,-0.517765,,,,,,
1736676518248,,,,,,,,,,,,,0.039237,-0.102452,-0.127266,,,,,,
1736676518258,,,,,,,,,,,,,0.043401,-0.091603,-0.228266,,,,,,
1736676518268,,,,,,,,,,,,,0.00361,-0.211604,-0.109249,,,,,,
1736676518278,,,,,,,,,,,,,0.021565,-0.142198,-0.089363,,,,,,
1736676518289,,,,,,,,,,,,,0.050504,-0.294973,-0.268325,,,,,,
1736676518298,,,,,,,,,,,,,-5.62E-4,-0.23493,-0.179011,,,,,,
1736676518309,,,,,,,,,,,,,0.152646,-0.230005,-0.388179,,,,,,
1736676518319,,,,,,,,,,,,,0.098602,-0.251609,-0.344136,,,,,,
1736676518329,,,,,,,,,,,,,0.075825,-0.168888,-0.478528,,,,,,
1736676518339,,,,,,,,,,,,,0.113067,-0.176786,-0.45901,,,,,,
1736676518348,,,,,,,,,,,,,-0.075236,-0.187712,-0.418476,,,,,,
1736676518360,,,,,,,,,,,,,-0.002262,-0.187153,-0.474604,,,,,,
1736676518369,,,,,,,,,,,,,-0.112404,-0.138097,-0.352914,,,,,,
1736676518379,,,,,,,,,,,,,-0.111083,-0.164318,-0.398633,,,,,,
1736676518389,,,,,,,,,,,,,-0.031617,-0.055839,-0.320043,,,,,,
1736676518400,,,,,,,,,,,,,-0.020845,-0.09051,-0.298997,,,,,,
1736676518410,,,,,,,,,,,,,-0.047522,-0.059329,-0.461071,,,,,,
1736676518420,,,,,,,,,,,,,-0.033244,-0.073145,-0.388673,,,,,,
1736676518429,,,,,,,,,,,,,-0.106663,-0.069338,-0.460998,,,,,,
1736676518440,,,,,,,,,,,,,-0.048934,-0.048793,-0.472696,,,,,,
1736676518449,,,,,,,,,,,,,-0.142496,-0.195649,-0.46685,,,,,,
1736676518459,,,,,,,,,,,,,-0.117531,-0.146471,-0.443405,,,,,,
1736676518469,,,,,,,,,,,,,-0.034995,-0.211062,-0.457025,,,,,,
1736676518479,,,,,,,,,,,,,-0.069665,-0.223004,-0.460245,,,,,,
1736676516752,,,,,,,,,,,,,,,,-0.110496,-0.32965,-0.876011,,,
1736676516762,,,,,,,,,,,,,,,,-0.106296,-0.326724,-0.877326,,,
1736676516772,,,,,,,,,,,,,,,,-0.105135,-0.326694,-0.872916,,,
1736676516782,,,,,,,,,,,,,,,,-0.10315,-0.326725,-0.868648,,,
1736676516792,,,,,,,,,,,,,,,,-0.100735,-0.324889,-0.864903,,,
1736676516802,,,,,,,,,,,,,,,,-0.098302,-0.323606,-0.861074,,,
1736676516812,,,,,,,,,,,,,,,,-0.094303,-0.320891,-0.857923,,,
1736676516822,,,,,,,,,,,,,,,,-0.090602,-0.318587,-0.854545,,,
1736676516833,,,,,,,,,,,,,,,,-0.084364,-0.314757,-0.851967,,,
1736676516843,,,,,,,,,,,,,,,,-0.078915,-0.311697,-0.84891,,,
1736676516852,,,,,,,,,,,,,,,,-0.071919,-0.307499,-0.846317,,,
1736676516863,,,,,,,,,,,,,,,,-0.064961,-0.302971,-0.843712,,,
1736676516873,,,,,,,,,,,,,,,,-0.058508,-0.298878,-0.840821,,,
1736676516882,,,,,,,,,,,,,,,,-0.053812,-0.295048,-0.837461,,,
1736676516892,,,,,,,,,,,,,,,,-0.048856,-0.291282,-0.834131,,,
1736676516902,,,,,,,,,,,,,,,,-0.044977,-0.28777,-0.830576,,,
1736676516912,,,,,,,,,,,,,,,,-0.041674,-0.284257,-0.827017,,,
1736676516922,,,,,,,,,,,,,,,,-0.036944,-0.280616,-0.823625,,,
1736676516932,,,,,,,,,,,,,,,,-0.032887,-0.277096,-0.820149,,,
1736676516942,,,,,,,,,,,,,,,,-0.027302,-0.272139,-0.816999,,,
1736676516952,,,,,,,,,,,,,,,,-0.022291,-0.267807,-0.813561,,,
1736676516963,,,,,,,,,,,,,,,,-0.016999,-0.261962,-0.810378,,,
1736676516973,,,,,,,,,,,,,,,,-0.011781,-0.256682,-0.807125,,,
1736676516984,,,,,,,,,,,,,,,,-0.007663,-0.250412,-0.803611,,,
1736676516994,,,,,,,,,,,,,,,,-0.003659,-0.245022,-0.800022,,,
1736676517003,,,,,,,,,,,,,,,,4.04E-4,-0.238811,-0.796502,,,
1736676517013,,,,,,,,,,,,,,,,0.003928,-0.233522,-0.79296,,,
1736676517023,,,,,,,,,,,,,,,,0.007571,-0.228345,-0.789334,,,
1736676517033,,,,,,,,,,,,,,,,0.011036,-0.22375,-0.785773,,,
1736676517044,,,,,,,,,,,,,,,,0.01484,-0.21898,-0.781866,,,
1736676517054,,,,,,,,,,,,,,,,0.018388,-0.214615,-0.778001,,,
1736676517063,,,,,,,,,,,,,,,,0.023185,-0.208654,-0.774279,,,
1736676517073,,,,,,,,,,,,,,,,0.027652,-0.203564,-0.770451,,,
1736676517083,,,,,,,,,,,,,,,,0.03232,-0.197511,-0.766504,,,
1736676517093,,,,,,,,,,,,,,,,0.036125,-0.192196,-0.762548,,,
1736676517103,,,,,,,,,,,,,,,,0.039493,-0.186692,-0.758375,,,
1736676517113,,,,,,,,,,,,,,,,0.042654,-0.181698,-0.754145,,,
1736676517124,,,,,,,,,,,,,,,,0.044868,-0.176476,-0.749843,,,
1736676517134,,,,,,,,,,,,,,,,0.047739,-0.171476,-0.745445,,,
1736676517143,,,,,,,,,,,,,,,,0.049878,-0.165832,-0.741055,,,
1736676517153,,,,,,,,,,,,,,,,0.052384,-0.161123,-0.73674,,,
1736676517163,,,,,,,,,,,,,,,,0.055197,-0.155007,-0.732539,,,
1736676517173,,,,,,,,,,,,,,,,0.057794,-0.149912,-0.728377,,,
1736676517183,,,,,,,,,,,,,,,,0.060809,-0.144885,-0.724051,,,
1736676517193,,,,,,,,,,,,,,,,0.063296,-0.140408,-0.720088,,,
1736676517204,,,,,,,,,,,,,,,,0.065994,-0.136652,-0.715553,,,
1736676517214,,,,,,,,,,,,,,,,0.068501,-0.133438,-0.71141,,,
1736676517224,,,,,,,,,,,,,,,,0.072438,-0.129764,-0.706552,,,
1736676517234,,,,,,,,,,,,,,,,0.075802,-0.126813,-0.701874,,,
1736676517244,,,,,,,,,,,,,,,,0.080927,-0.122751,-0.696881,,,
1736676517254,,,,,,,,,,,,,,,,0.085059,-0.120241,-0.691745,,,
1736676517264,,,,,,,,,,,,,,,,0.089168,-0.117282,-0.686505,,,
1736676517274,,,,,,,,,,,,,,,,0.092772,-0.114937,-0.681369,,,
1736676517284,,,,,,,,,,,,,,,,0.095192,-0.114092,-0.676286,,,
1736676517294,,,,,,,,,,,,,,,,0.097284,-0.112383,-0.671519,,,
1736676517305,,,,,,,,,,,,,,,,0.099352,-0.112658,-0.666903,,,
1736676517315,,,,,,,,,,,,,,,,0.100916,-0.112461,-0.662426,,,
1736676517324,,,,,,,,,,,,,,,,0.102826,-0.112574,-0.65812,,,
1736676517334,,,,,,,,,,,,,,,,0.104406,-0.112861,-0.653729,,,
1736676517344,,,,,,,,,,,,,,,,0.106093,-0.112846,-0.649497,,,
1736676517354,,,,,,,,,,,,,,,,0.107463,-0.112863,-0.64529,,,
1736676517365,,,,,,,,,,,,,,,,0.108281,-0.11369,-0.641106,,,
1736676517375,,,,,,,,,,,,,,,,0.109399,-0.114001,-0.636974,,,
1736676517384,,,,,,,,,,,,,,,,0.109764,-0.115146,-0.632857,,,
1736676517394,,,,,,,,,,,,,,,,0.110344,-0.115882,-0.628747,,,
1736676517405,,,,,,,,,,,,,,,,0.111628,-0.11765,-0.624921,,,
1736676517415,,,,,,,,,,,,,,,,0.112671,-0.11915,-0.620982,,,
1736676517425,,,,,,,,,,,,,,,,0.114624,-0.12162,-0.61728,,,
1736676517436,,,,,,,,,,,,,,,,0.116301,-0.123518,-0.613394,,,
1736676517446,,,,,,,,,,,,,,,,0.11884,-0.126298,-0.609504,,,
1736676517456,,,,,,,,,,,,,,,,0.121016,-0.128352,-0.605486,,,
1736676517465,,,,,,,,,,,,,,,,0.123341,-0.130861,-0.601767,,,
1736676517475,,,,,,,,,,,,,,,,0.125406,-0.133031,-0.597943,,,
1736676517485,,,,,,,,,,,,,,,,0.128109,-0.13483,-0.594422,,,
1736676517495,,,,,,,,,,,,,,,,0.130225,-0.136196,-0.590966,,,
1736676517505,,,,,,,,,,,,,,,,0.133387,-0.137008,-0.587796,,,
1736676517515,,,,,,,,,,,,,,,,0.135924,-0.137734,-0.584535,,,
1736676517526,,,,,,,,,,,,,,,,0.138683,-0.1378,-0.581352,,,
1736676517536,,,,,,,,,,,,,,,,0.141304,-0.137847,-0.578017,,,
1736676517546,,,,,,,,,,,,,,,,0.143896,-0.136517,-0.57454,,,
1736676517556,,,,,,,,,,,,,,,,0.146394,-0.135395,-0.570918,,,
1736676517565,,,,,,,,,,,,,,,,0.148505,-0.133669,-0.567241,,,
1736676517575,,,,,,,,,,,,,,,,0.150475,-0.131829,-0.563469,,,
1736676517585,,,,,,,,,,,,,,,,0.150652,-0.130134,-0.559848,,,
1736676517595,,,,,,,,,,,,,,,,0.151432,-0.128233,-0.556122,,,
1736676517605,,,,,,,,,,,,,,,,0.150241,-0.125801,-0.552914,,,
1736676517615,,,,,,,,,,,,,,,,0.149542,-0.124021,-0.549719,,,
1736676517625,,,,,,,,,,,,,,,,0.147821,-0.121299,-0.546939,,,
1736676517635,,,,,,,,,,,,,,,,0.146473,-0.119201,-0.544213,,,
1736676517646,,,,,,,,,,,,,,,,0.144438,-0.117261,-0.541721,,,
1736676517656,,,,,,,,,,,,,,,,0.143023,-0.115353,-0.539253,,,
1736676517666,,,,,,,,,,,,,,,,0.139978,-0.112881,-0.536833,,,
1736676517677,,,,,,,,,,,,,,,,0.13841,-0.111456,-0.534647,,,
1736676517686,,,,,,,,,,,,,,,,0.135934,-0.109828,-0.532447,,,
1736676517696,,,,,,,,,,,,,,,,0.133575,-0.108365,-0.530554,,,
1736676517707,,,,,,,,,,,,,,,,0.133942,-0.108275,-0.528677,,,
1736676517717,,,,,,,,,,,,,,,,0.13375,-0.107721,-0.526707,,,
1736676517726,,,,,,,,,,,,,,,,0.136114,-0.108436,-0.524713,,,
1736676517736,,,,,,,,,,,,,,,,0.137819,-0.108664,-0.522634,,,
1736676517747,,,,,,,,,,,,,,,,0.14051,-0.109217,-0.520313,,,
1736676517757,,,,,,,,,,,,,,,,0.142665,-0.109232,-0.518031,,,
1736676517767,,,,,,,,,,,,,,,,0.144734,-0.108651,-0.515794,,,
1736676517777,,,,,,,,,,,,,,,,0.146616,-0.108272,-0.513439,,,
1736676517786,,,,,,,,,,,,,,,,0.147365,-0.106998,-0.511236,,,
1736676517796,,,,,,,,,,,,,,,,0.148195,-0.106116,-0.50906,,,
1736676517806,,,,,,,,,,,,,,,,0.147623,-0.105808,-0.507003,,,
1736676517816,,,,,,,,,,,,,,,,0.147419,-0.105088,-0.505108,,,
1736676517826,,,,,,,,,,,,,,,,0.146758,-0.105046,-0.503546,,,
1736676517836,,,,,,,,,,,,,,,,0.146473,-0.10497,-0.502076,,,
1736676517846,,,,,,,,,,,,,,,,0.146516,-0.10456,-0.500763,,,
1736676517856,,,,,,,,,,,,,,,,0.146489,-0.104319,-0.499565,,,
1736676517867,,,,,,,,,,,,,,,,0.147072,-0.103962,-0.498042,,,
1736676517877,,,,,,,,,,,,,,,,0.147471,-0.103584,-0.496674,,,
1736676517887,,,,,,,,,,,,,,,,0.147771,-0.103911,-0.49495,,,
1736676517898,,,,,,,,,,,,,,,,0.148085,-0.103782,-0.493426,,,
1736676517907,,,,,,,,,,,,,,,,0.148038,-0.103498,-0.491619,,,
1736676517917,,,,,,,,,,,,,,,,0.148171,-0.103309,-0.489897,,,
1736676517928,,,,,,,,,,,,,,,,0.148373,-0.102296,-0.48836,,,
1736676517938,,,,,,,,,,,,,,,,0.14844,-0.101824,-0.486796,,,
1736676517947,,,,,,,,,,,,,,,,0.148881,-0.101266,-0.48553,,,
1736676517957,,,,,,,,,,,,,,,,0.149153,-0.100811,-0.484306,,,
1736676517967,,,,,,,,,,,,,,,,0.150408,-0.100569,-0.482968,,,
1736676517977,,,,,,,,,,,,,,,,0.151202,-0.100208,-0.481852,,,
1736676517988,,,,,,,,,,,,,,,,0.152692,-0.100195,-0.480438,,,
1736676517997,,,,,,,,,,,,,,,,0.153965,-0.099923,-0.479044,,,
1736676518007,,,,,,,,,,,,,,,,0.155012,-0.099609,-0.477515,,,
1736676518017,,,,,,,,,,,,,,,,0.156099,-0.099406,-0.476039,,,
1736676518028,,,,,,,,,,,,,,,,0.156645,-0.098993,-0.474503,,,
1736676518038,,,,,,,,,,,,,,,,0.157235,-0.098671,-0.473049,,,
1736676518047,,,,,,,,,,,,,,,,0.157579,-0.098784,-0.471883,,,
1736676518057,,,,,,,,,,,,,,,,0.157771,-0.098595,-0.470577,,,
1736676518067,,,,,,,,,,,,,,,,0.158392,-0.098394,-0.469689,,,
1736676518077,,,,,,,,,,,,,,,,0.158943,-0.098317,-0.46874,,,
1736676518087,,,,,,,,,,,,,,,,0.159778,-0.097724,-0.467937,,,
1736676518097,,,,,,,,,,,,,,,,0.160401,-0.0973,-0.467101,,,
1736676518108,,,,,,,,,,,,,,,,0.16115,-0.096985,-0.46615,,,
1736676518117,,,,,,,,,,,,,,,,0.161734,-0.096525,-0.465271,,,
1736676518129,,,,,,,,,,,,,,,,0.161923,-0.096491,-0.464125,,,
1736676518139,,,,,,,,,,,,,,,,0.16223,-0.096454,-0.463093,,,
1736676518148,,,,,,,,,,,,,,,,0.161907,-0.095928,-0.461912,,,
1736676518158,,,,,,,,,,,,,,,,0.161961,-0.095496,-0.460822,,,
1736676518168,,,,,,,,,,,,,,,,0.161813,-0.094726,-0.459516,,,
1736676518178,,,,,,,,,,,,,,,,0.161615,-0.094131,-0.458309,,,
1736676518189,,,,,,,,,,,,,,,,0.162034,-0.093814,-0.457303,,,
1736676518199,,,,,,,,,,,,,,,,0.162047,-0.093393,-0.456183,,,
1736676518208,,,,,,,,,,,,,,,,0.162872,-0.093324,-0.455348,,,
1736676518218,,,,,,,,,,,,,,,,0.163379,-0.093074,-0.45435,,,
1736676518228,,,,,,,,,,,,,,,,0.163483,-0.092928,-0.453619,,,
1736676518238,,,,,,,,,,,,,,,,0.163924,-0.092924,-0.452769,,,
1736676518248,,,,,,,,,,,,,,,,0.163624,-0.092629,-0.45217,,,
1736676518258,,,,,,,,,,,,,,,,0.163556,-0.092421,-0.451558,,,
1736676518268,,,,,,,,,,,,,,,,0.163224,-0.091731,-0.450944,,,
1736676518278,,,,,,,,,,,,,,,,0.163212,-0.091225,-0.450368,,,
1736676518288,,,,,,,,,,,,,,,,0.162903,-0.090647,-0.449487,,,
1736676518298,,,,,,,,,,,,,,,,0.162789,-0.090004,-0.448985,,,
1736676518308,,,,,,,,,,,,,,,,0.162588,-0.090152,-0.448009,,,
1736676518318,,,,,,,,,,,,,,,,0.162263,-0.090121,-0.447276,,,
1736676518328,,,,,,,,,,,,,,,,0.162265,-0.090385,-0.44649,,,
1736676518338,,,,,,,,,,,,,,,,0.162073,-0.090831,-0.445854,,,
1736676518349,,,,,,,,,,,,,,,,0.16205,-0.09049,-0.445403,,,
1736676518360,,,,,,,,,,,,,,,,0.162042,-0.090342,-0.444779,,,
1736676518369,,,,,,,,,,,,,,,,0.162349,-0.089671,-0.444715,,,
1736676518379,,,,,,,,,,,,,,,,0.162699,-0.08881,-0.444265,,,
1736676518389,,,,,,,,,,,,,,,,0.163287,-0.088345,-0.444052,,,
1736676518399,,,,,,,,,,,,,,,,0.163678,-0.08792,-0.443886,,,
1736676518409,,,,,,,,,,,,,,,,0.164318,-0.087725,-0.443703,,,
1736676518419,,,,,,,,,,,,,,,,0.164752,-0.087601,-0.443658,,,
1736676518429,,,,,,,,,,,,,,,,0.165387,-0.087282,-0.443329,,,
1736676518439,,,,,,,,,,,,,,,,0.16603,-0.087224,-0.443122,,,
1736676518449,,,,,,,,,,,,,,,,0.166316,-0.086505,-0.442655,,,
1736676518459,,,,,,,,,,,,,,,,0.166724,-0.085972,-0.442283,,,
1736676518469,,,,,,,,,,,,,,,,0.166819,-0.085625,-0.441817,,,
1736676518479,,,,,,,,,,,,,,,,0.166927,-0.085101,-0.441366,,,
1736676516826,,,,,,,,,,,,,,,,,,,344.0,,
1736676516865,,,,,,,,,,,,,,,,,,,356.0,,
1736676517067,,,,,,,,,,,,,,,,,,,117.0,,
1736676517267,,,,,,,,,,,,,,,,,,,129.0,,
1736676517468,,,,,,,,,,,,,,,,,,,142.0,,
1736676517668,,,,,,,,,,,,,,,,,,,149.0,,
1736676517866,,,,,,,,,,,,,,,,,,,150.0,,
1736676518066,,,,,,,,,,,,,,,,,,,154.0,,
1736676518267,,,,,,,,,,,,,,,,,,,164.0,,
1736676518467,,,,,,,,,,,,,,,,,,,165.0,,
1736676516826,,,,,,,,,,,,,,,,,,,,,5.0
1736676516826,,,,,,,,,,,,,,,,,,,,,5.0
1736676518489,0.052950002,2.9680502,8.85795,,,,,,,,,,,,,,,,,,
1736676518499,0.08400001,3.015,8.85105,,,,,,,,,,,,,,,,,,
1736676518510,0.08205,3.0010502,8.784,,,,,,,,,,,,,,,,,,
1736676518519,0.12705001,2.9869502,8.81505,,,,,,,,,,,,,,,,,,
1736676518529,0.108,2.9239502,8.911051,,,,,,,,,,,,,,,,,,
1736676518539,0.07005,2.877,8.986951,,,,,,,,,,,,,,,,,,
1736676518550,0.025050001,2.83395,9.009001,,,,,,,,,,,,,,,,,,
1736676518560,0.039,2.8650002,9.00405,,,,,,,,,,,,,,,,,,
1736676518570,0.07005,2.9290502,8.973001,,,,,,,,,,,,,,,,,,
1736676518580,0.063,2.9680502,8.87205,,,,,,,,,,,,,,,,,,
1736676518590,0.03195,3.006,8.712001,,,,,,,,,,,,,,,,,,
1736676518600,0.01995,3.0180001,8.62605,,,,,,,,,,,,,,,,,,
1736676518611,-0.039,2.97195,8.571,,,,,,,,,,,,,,,,,,
1736676518620,-0.07005,2.9680502,8.578051,,,,,,,,,,,,,,,,,,
1736676518631,-0.09195001,2.9869502,8.62605,,,,,,,,,,,,,,,,,,
1736676518641,-0.09705,3.0180001,8.635051,,,,,,,,,,,,,,,,,,
1736676518651,-0.08205,2.97,8.6640005,,,,,,,,,,,,,,,,,,
1736676518661,-0.10605001,2.9629502,8.743051,,,,,,,,,,,,,,,,,,
1736676518670,-0.14205001,2.9839501,8.905951,,,,,,,,,,,,,,,,,,
1736676518680,-0.13995,2.9629502,9.021001,,,,,,,,,,,,,,,,,,
1736676518690,-0.12495001,2.90505,9.042001,,,,,,,,,,,,,,,,,,
1736676518700,-0.07305,2.90295,8.96595,,,,,,,,,,,,,,,,,,
1736676518710,-0.006,2.8980002,8.81295,,,,,,,,,,,,,,,,,,
1736676518720,0.0049500004,2.93595,8.644951,,,,,,,,,,,,,,,,,,
1736676518730,-0.00795,3.0040503,8.458051,,,,,,,,,,,,,,,,,,
1736676518740,-0.00795,3.04395,8.334001,,,,,,,,,,,,,,,,,,
1736676518750,-0.030000001,3.039,8.311951,,,,,,,,,,,,,,,,,,
1736676518760,-0.076950006,3.0300002,8.34795,,,,,,,,,,,,,,,,,,
1736676518771,-0.11805001,2.9989502,8.370001,,,,,,,,,,,,,,,,,,
1736676518781,-0.14895001,2.97,8.403001,,,,,,,,,,,,,,,,,,
1736676518790,-0.18795002,2.97195,8.52495,,,,,,,,,,,,,,,,,,
1736676518800,-0.23505001,2.9890501,8.652,,,,,,,,,,,,,,,,,,
1736676518811,-0.20895001,2.9680502,8.784,,,,,,,,,,,,,,,,,,
1736676518822,-0.13995,2.9959502,8.920051,,,,,,,,,,,,,,,,,,
1736676518831,-0.04605,2.9989502,9.009001,,,,,,,,,,,,,,,,,,
1736676518841,-0.010050001,2.9479501,8.98995,,,,,,,,,,,,,,,,,,
1736676518851,0.01305,2.9170501,8.944051,,,,,,,,,,,,,,,,,,
1736676518861,-0.0010500001,2.91,8.908051,,,,,,,,,,,,,,,,,,
1736676518872,-0.06795,2.946,8.875051,,,,,,,,,,,,,,,,,,
1736676518882,-0.13305001,3.0180001,8.805,,,,,,,,,,,,,,,,,,
1736676518891,-0.09705,3.0229502,8.772,,,,,,,,,,,,,,,,,,
1736676518901,-0.04605,3.006,8.724,,,,,,,,,,,,,,,,,,
1736676518911,-0.08895,2.9869502,8.616,,,,,,,,,,,,,,,,,,
1736676518921,-0.13695,2.93595,8.596951,,,,,,,,,,,,,,,,,,
1736676518931,-0.13995,2.877,8.6310005,,,,,,,,,,,,,,,,,,
1736676518941,-0.03705,2.83605,8.620951,,,,,,,,,,,,,,,,,,
1736676518951,0.03195,2.8189502,8.628,,,,,,,,,,,,,,,,,,
1736676518961,0.0010500001,2.8140001,8.679001,,,,,,,,,,,,,,,,,,
1736676518971,-0.05595,2.83605,8.784,,,,,,,,,,,,,,,,,,
1736676518981,-0.11595,2.8980002,8.80305,,,,,,,,,,,,,,,,,,
1736676518991,-0.14400001,2.9290502,8.76,,,,,,,,,,,,,,,,,,
1736676519001,-0.09195001,2.9340003,8.71695,,,,,,,,,,,,,,,,,,
1736676519011,-0.06795,2.9839501,8.65005,,,,,,,,,,,,,,,,,,
1736676519021,-0.042000003,3.04695,8.587951,,,,,,,,,,,,,,,,,,
1736676519031,-0.04605,3.0559502,8.532001,,,,,,,,,,,,,,,,,,
1736676519041,-0.10095,3.00795,8.544001,,,,,,,,,,,,,,,,,,
1736676519052,-0.156,2.97,8.66895,,,,,,,,,,,,,,,,,,
1736676519062,-0.156,2.901,8.86305,,,,,,,,,,,,,,,,,,
1736676519072,-0.11100001,2.838,8.950951,,,,,,,,,,,,,,,,,,
1736676519082,-0.04605,2.80005,8.923051,,,,,,,,,,,,,,,,,,
1736676519092,-0.02205,2.84505,8.752951,,,,,,,,,,,,,,,,,,
1736676519102,-0.079950005,2.93895,8.57295,,,,,,,,,,,,,,,,,,
1736676519113,-0.14205001,2.97195,8.44905,,,,,,,,,,,,,,,,,,
1736676519123,-0.15405001,2.9839501,8.401051,,,,,,,,,,,,,,,,,,
1736676519133,-0.109050006,2.946,8.439,,,,,,,,,,,,,,,,,,
1736676519143,-0.11100001,2.8909502,8.54895,,,,,,,,,,,,,,,,,,
1736676519153,-0.147,2.88105,8.7310505,,,,,,,,,,,,,,,,,,
1736676519163,-0.21195,2.877,8.923051,,,,,,,,,,,,,,,,,,
1736676519172,-0.23805001,2.8960502,9.02295,,,,,,,,,,,,,,,,,,
1736676519182,-0.16395001,2.9580002,9.01395,,,,,,,,,,,,,,,,,,
1736676519192,-0.08505,2.98005,8.86095,,,,,,,,,,,,,,,,,,
1736676519202,-0.076950006,3.01095,8.69505,,,,,,,,,,,,,,,,,,
1736676519212,-0.10605001,3.0370502,8.566051,,,,,,,,,,,,,,,,,,
1736676519222,-0.12795001,3.01305,8.50605,,,,,,,,,,,,,,,,,,
1736676519232,-0.11805001,2.9959502,8.52105,,,,,,,,,,,,,,,,,,
1736676519242,-0.094050005,2.9890501,8.563951,,,,,,,,,,,,,,,,,,
1736676519252,-0.06105,2.9479501,8.68305,,,,,,,,,,,,,,,,,,
1736676519262,-0.04605,2.8890002,8.809951,,,,,,,,,,,,,,,,,,
1736676519273,-0.064950004,2.841,8.85795,,,,,,,,,,,,,,,,,,
1736676519284,-0.087000005,2.8620002,8.81295,,,,,,,,,,,,,,,,,,
1736676519293,-0.08505,2.8650002,8.764951,,,,,,,,,,,,,,,,,,
1736676519303,-0.09705,2.8930502,8.740951,,,,,,,,,,,,,,,,,,
1736676519313,-0.064950004,2.9149501,8.691,,,,,,,,,,,,,,,,,,
1736676519323,-0.07005,2.9530501,8.68095,,,,,,,,,,,,,,,,,,
1736676519334,-0.13695,2.98005,8.71395,,,,,,,,,,,,,,,,,,
1736676519344,-0.17295001,2.9629502,8.743051,,,,,,,,,,,,,,,,,,
1736676519353,-0.15405001,2.9629502,8.781,,,,,,,,,,,,,,,,,,
1736676519363,-0.18300001,2.9989502,8.817,,,,,,,,,,,,,,,,,,
1736676519374,-0.20400001,2.9989502,8.776951,,,,,,,,,,,,,,,,,,
1736676519384,-0.19500001,2.9680502,8.69295,,,,,,,,,,,,,,,,,,
1736676519393,-0.20205002,2.9530501,8.587951,,,,,,,,,,,,,,,,,,
1736676519403,-0.17595,2.97,8.52105,,,,,,,,,,,,,,,,,,
1736676519414,-0.13695,2.9509501,8.48505,,,,,,,,,,,,,,,,,,
1736676519424,-0.15405001,2.9479501,8.583,,,,,,,,,,,,,,,,,,
1736676519433,-0.18495001,2.9599502,8.67405,,,,,,,,,,,,,,,,,,
1736676519443,-0.19500001,2.9650502,8.743051,,,,,,,,,,,,,,,,,,
1736676519453,-0.13305001,2.9220002,8.77005,,,,,,,,,,,,,,,,,,
1736676519463,-0.11595,2.901,8.77005,,,,,,,,,,,,,,,,,,
1736676519473,-0.11805001,2.86905,8.79105,,,,,,,,,,,,,,,,,,
1736676519483,-0.14895001,2.8860002,8.772,,,,,,,,,,,,,,,,,,
1736676519493,-0.20700002,2.8890002,8.69295,,,,,,,,,,,,,,,,,,
1736676519503,-0.192,2.9200501,8.6310005,,,,,,,,,,,,,,,,,,
1736676519515,-0.18795002,2.97195,8.602051,,,,,,,,,,,,,,,,,,
1736676519525,-0.13005,2.9890501,8.595,,,,,,,,,,,,,,,,,,
1736676519534,-0.12105001,2.9940002,8.65005,,,,,,,,,,,,,,,,,,
1736676519544,-0.12795001,2.946,8.68305,,,,,,,,,,,,,,,,,,
1736676519554,-0.123,2.877,8.734051,,,,,,,,,,,,,,,,,,
1736676519564,-0.09705,2.83605,8.805,,,,,,,,,,,,,,,,,,
1736676519574,-0.109050006,2.8140001,8.84595,,,,,,,,,,,,,,,,,,
1736676519584,-0.11595,2.7810001,8.817,,,,,,,,,,,,,,,,,,
1736676519595,-0.10095,2.7859502,8.779051,,,,,,,,,,,,,,,,,,
1736676519605,-0.10605001,2.84805,8.7289505,,,,,,,,,,,,,,,,,,
1736676519614,-0.12495001,2.94405,8.64,,,,,,,,,,,,,,,,,,
1736676519624,-0.18795002,3.0319502,8.55195,,,,,,,,,,,,,,,,,,
1736676519635,-0.20205002,3.0559502,8.500951,,,,,,,,,,,,,,,,,,
1736676519645,-0.16800001,3.0540001,8.568001,,,,,,,,,,,,,,,,,,
1736676519655,-0.14205001,2.9650502,8.710051,,,,,,,,,,,,,,,,,,
1736676519665,-0.16800001,2.87205,8.832001,,,,,,,,,,,,,,,,,,
1736676519674,-0.19995001,2.8240502,8.904,,,,,,,,,,,,,,,,,,
1736676519684,-0.20700002,2.77095,8.868,,,,,,,,,,,,,,,,,,
1736676519695,-0.18300001,2.73105,8.81505,,,,,,,,,,,,,,,,,,
1736676519705,-0.09195001,2.74305,8.772,,,,,,,,,,,,,,,,,,
1736676519714,-0.09705,2.80995,8.75805,,,,,,,,,,,,,,,,,,
1736676519724,-0.10605001,2.8890002,8.772,,,,,,,,,,,,,,,,,,
1736676519734,-0.112950005,2.93895,8.722051,,,,,,,,,,,,,,,,,,
1736676519745,-0.135,2.98005,8.628,,,,,,,,,,,,,,,,,,
1736676519756,-0.156,2.9560502,8.544001,,,,,,,,,,,,,,,,,,
1736676519766,-0.14895001,2.8980002,8.52795,,,,,,,,,,,,,,,,,,
1736676519775,-0.14895001,2.8530002,8.53995,,,,,,,,,,,,,,,,,,
1736676519785,-0.13995,2.805,8.583,,,,,,,,,,,,,,,,,,
1736676519795,-0.13995,2.79795,8.602051,,,,,,,,,,,,,,,,,,
1736676519805,-0.11805001,2.8189502,8.607,,,,,,,,,,,,,,,,,,
1736676519816,-0.075,2.84505,8.635051,,,,,,,,,,,,,,,,,,
1736676519826,-0.079950005,2.8240502,8.722051,,,,,,,,,,,,,,,,,,
1736676519836,-0.11100001,2.7949502,8.809951,,,,,,,,,,,,,,,,,,
1736676519846,-0.14205001,2.74305,8.84895,,,,,,,,,,,,,,,,,,
1736676519855,-0.135,2.7210002,8.829,,,,,,,,,,,,,,,,,,
1736676519865,-0.12795001,2.7640502,8.767051,,,,,,,,,,,,,,,,,,
1736676519875,-0.109050006,2.8170002,8.722051,,,,,,,,,,,,,,,,,,
1736676519885,-0.094050005,2.8570502,8.68095,,,,,,,,,,,,,,,,,,
1736676519896,-0.076950006,2.83605,8.712001,,,,,,,,,,,,,,,,,,
1736676519906,-0.11100001,2.80005,8.776951,,,,,,,,,,,,,,,,,,
1736676519915,-0.156,2.7499502,8.82495,,,,,,,,,,,,,,,,,,
1736676519925,-0.156,2.7570002,8.84595,,,,,,,,,,,,,,,,,,
1736676519935,-0.13995,2.73105,8.868,,,,,,,,,,,,,,,,,,
1736676519946,-0.10605001,2.733,8.84595,,,,,,,,,,,,,,,,,,
1736676519955,-0.109050006,2.7859502,8.820001,,,,,,,,,,,,,,,,,,
1736676519965,-0.112950005,2.8260002,8.7619505,,,,,,,,,,,,,,,,,,
1736676519976,-0.12795001,2.8140001,8.71695,,,,,,,,,,,,,,,,,,
1736676519986,-0.16095,2.7949502,8.69295,,,,,,,,,,,,,,,,,,
1736676519996,-0.21195,2.7589502,8.70495,,,,,,,,,,,,,,,,,,
1736676520006,-0.231,2.76195,8.74995,,,,,,,,,,,,,,,,,,
1736676520016,-0.16395001,2.77095,8.77005,,,,,,,,,,,,,,,,,,
1736676520026,-0.109050006,2.769,8.734051,,,,,,,,,,,,,,,,,,
1736676520037,-0.09195001,2.7900002,8.748,,,,,,,,,,,,,,,,,,
1736676520047,-0.14205001,2.7810001,8.7960005,,,,,,,,,,,,,,,,,,
1736676520057,-0.18495001,2.766,8.832001,,,,,,,,,,,,,,,,,,
1736676520067,-0.24000001,2.73795,8.809951,,,,,,,,,,,,,,,,,,
1736676520076,-0.20700002,2.769,8.781,,,,,,,,,,,,,,,,,,
1736676520086,-0.18495001,2.79795,8.767051,,,,,,,,,,,,,,,,,,
1736676520096,-0.17295001,2.77095,8.764951,,,,,,,,,,,,,,,,,,
1736676520106,-0.16800001,2.77095,8.722051,,,,,,,,,,,,,,,,,,
1736676520117,-0.16395001,2.778,8.644951,,,,,,,,,,,,,,,,,,
1736676520127,-0.18300001,2.84295,8.676001,,,,,,,,,,,,,,,,,,
1736676520136,-0.18495001,2.91,8.73795,,,,,,,,,,,,,,,,,,
1736676520146,-0.231,2.9220002,8.6640005,,,,,,,,,,,,,,,,,,
1736676520156,-0.264,2.8840501,8.559,,,,,,,,,,,,,,,,,,
1736676520166,-0.23505001,2.83605,8.578051,,,,,,,,,,,,,,,,,,
1736676520176,-0.24000001,2.8260002,8.71695,,,,,,,,,,,,,,,,,,
1736676520186,-0.25695002,2.80995,8.905951,,,,,,,,,,,,,,,,,,
1736676520196,-0.21900001,2.81205,9.01605,,,,,,,,,,,,,,,,,,
1736676520207,-0.16605,2.77395,8.98305,,,,,,,,,,,,,,,,,,
1736676520217,-0.11595,2.7520502,8.85105,,,,,,,,,,,,,,,,,,
1736676520227,-0.112950005,2.7210002,8.724,,,,,,,,,,,,,,,,,,
1736676520238,-0.16095,2.7259502,8.710051,,,,,,,,,,,,,,,,,,
1736676520248,-0.17295001,2.7160501,8.80095,,,,,,,,,,,,,,,,,,
1736676520257,-0.16605,2.73795,8.99505,,,,,,,,,,,,,,,,,,
1736676520267,-0.18795002,2.7640502,9.05895,,,,,,,,,,,,,,,,,,
1736676520277,-0.16800001,2.7640502,8.88405,,,,,,,,,,,,,,,,,,
1736676520287,-0.135,2.805,8.6640005,,,,,,,,,,,,,,,,,,
1736676520297,-0.18300001,2.8189502,8.70495,,,,,,,,,,,,,,,,,,
1736676520307,-0.23805001,2.838,8.85795,,,,,,,,,,,,,,,,,,
1736676520317,-0.17295001,2.8570502,8.865001,,,,,,,,,,,,,,,,,,
1736676520327,-0.15195,2.87205,8.76,,,,,,,,,,,,,,,,,,
1736676520337,-0.22605,2.91,8.72595,,,,,,,,,,,,,,,,,,
1736676520347,-0.28800002,2.9269502,8.724,,,,,,,,,,,,,,,,,,
1736676520357,-0.3,2.9239502,8.767051,,,,,,,,,,,,,,,,,,
1736676520367,-0.33795002,2.901,8.808001,,,,,,,,,,,,,,,,,,
1736676520378,-0.34800002,2.87895,8.83905,,,,,,,,,,,,,,,,,,
1736676520388,-0.29295,2.8290002,8.89395,,,,,,,,,,,,,,,,,,
1736676520397,-0.20700002,2.778,8.96595,,,,,,,,,,,,,,,,,,
1736676520407,-0.15195,2.766,8.905951,,,,,,,,,,,,,,,,,,
1736676520417,-0.11100001,2.74005,8.82705,,,,,,,,,,,,,,,,,,
1736676520427,-0.11100001,2.7450001,8.817,,,,,,,,,,,,,,,,,,
1736676520438,-0.16800001,2.80005,8.88,,,,,,,,,,,,,,,,,,
1736676520448,-0.21195,2.838,8.98305,,,,,,,,,,,,,,,,,,
1736676520459,-0.23505001,2.8500001,9.054001,,,,,,,,,,,,,,,,,,
1736676520469,-0.24300002,2.8240502,9.061951,,,,,,,,,,,,,,,,,,
1736676520478,-0.231,2.7550502,9.042001,,,,,,,,,,,,,,,,,,
1736676520488,-0.20400001,2.709,9.0070505,,,,,,,,,,,,,,,,,,
1736676520498,-0.20895001,2.70705,8.93505,,,,,,,,,,,,,,,,,,
1736676520508,-0.17595,2.6830502,8.889001,,,,,,,,,,,,,,,,,,
1736676520518,-0.16605,2.697,8.925,,,,,,,,,,,,,,,,,,
1736676520528,-0.21195,2.69895,9.01395,,,,,,,,,,,,,,,,,,
1736676520538,-0.252,2.7229502,9.04695,,,,,,,,,,,,,,,,,,
1736676520548,-0.21195,2.7190502,9.04695,,,,,,,,,,,,,,,,,,
1736676520559,-0.16605,2.7469501,9.033,,,,,,,,,,,,,,,,,,
1736676520569,-0.15900001,2.7829502,9.052051,,,,,,,,,,,,,,,,,,
1736676520579,-0.14895001,2.7859502,9.1050005,,,,,,,,,,,,,,,,,,
1736676520589,-0.13995,2.73495,9.10995,,,,,,,,,,,,,,,,,,
1736676520599,-0.10605001,2.64,9.141001,,,,,,,,,,,,,,,,,,
1736676520609,-0.076950006,2.5510502,9.126,,,,,,,,,,,,,,,,,,
1736676520618,-0.064950004,2.52705,9.1050005,,,,,,,,,,,,,,,,,,
1736676520628,-0.042000003,2.5560002,9.02805,,,,,,,,,,,,,,,,,,
1736676520639,-0.054,2.63505,8.908051,,,,,,,,,,,,,,,,,,
1736676520649,-0.13995,2.73495,8.832001,,,,,,,,,,,,,,,,,,
1736676520658,-0.264,2.77395,8.80305,,,,,,,,,,,,,,,,,,
1736676520669,-0.33795002,2.73495,8.85105,,,,,,,,,,,,,,,,,,
1736676520679,-0.32205,2.70405,8.940001,,,,,,,,,,,,,,,,,,
1736676520689,-0.27105,2.5410001,8.27595,,,,,,,,,,,,,,,,,,
1736676520700,-0.17805001,2.5200002,7.58895,,,,,,,,,,,,,,,,,,
1736676520710,-0.027,2.59395,8.88195,,,,,,,,,,,,,,,,,,
1736676520720,-0.135,2.565,9.636001,,,,,,,,,,,,,,,,,,
1736676520730,-0.46500003,2.6590502,10.015051,,,,,,,,,,,,,,,,,,
1736676520739,-0.53505003,2.805,10.302,,,,,,,,,,,,,,,,,,
1736676520749,-0.37695003,2.86905,10.41405,,,,,,,,,,,,,,,,,,
1736676520759,-0.38205,2.91,10.30395,,,,,,,,,,,,,,,,,,
1736676520769,-0.40095,2.9149501,9.900001,,,,,,,,,,,,,,,,,,
1736676520780,-0.09900001,2.637,9.33705,,,,,,,,,,,,,,,,,,
1736676520790,0.015000001,2.4150002,8.68305,,,,,,,,,,,,,,,,,,
1736676520799,-0.21900001,2.5870502,8.403001,,,,,,,,,,,,,,,,,,
1736676520810,-0.30495003,2.778,8.40795,,,,,,,,,,,,,,,,,,
1736676520819,-0.28605002,2.8620002,8.52795,,,,,,,,,,,,,,,,,,
1736676520829,-0.21405001,2.8240502,8.72595,,,,,,,,,,,,,,,,,,
1736676520839,-0.09705,2.7229502,9.019051,,,,,,,,,,,,,,,,,,
1736676520849,-0.043950003,2.6250002,9.3490505,,,,,,,,,,,,,,,,,,
1736676520859,0.0049500004,2.50305,9.612,,,,,,,,,,,,,,,,,,
1736676520869,0.048,2.43405,9.77295,,,,,,,,,,,,,,,,,,
1736676520880,0.01695,2.4790502,9.694051,,,,,,,,,,,,,,,,,,
1736676520890,-0.049050003,2.5489502,9.394051,,,,,,,,,,,,,,,,,,
1736676520900,-0.13695,2.628,9.081,,,,,,,,,,,,,,,,,,
1736676520911,-0.231,2.7280502,8.916,,,,,,,,,,,,,,,,,,
1736676520921,-0.23505001,2.7520502,8.89605,,,,,,,,,,,,,,,,,,
1736676520931,-0.22800002,2.77095,8.928,,,,,,,,,,,,,,,,,,
1736676520941,-0.25905,2.77095,8.920051,,,,,,,,,,,,,,,,,,
1736676520951,-0.23295002,2.76195,8.94705,,,,,,,,,,,,,,,,,,
1736676520960,-0.18300001,2.77605,9.094951,,,,,,,,,,,,,,,,,,
1736676520970,-0.192,2.7810001,9.258,,,,,,,,,,,,,,,,,,
1736676520981,-0.17595,2.7499502,9.36795,,,,,,,,,,,,,,,,,,
1736676520991,-0.19005,2.709,9.42105,,,,,,,,,,,,,,,,,,
1736676521001,-0.19005,2.6520002,9.43995,,,,,,,,,,,,,,,,,,
1736676521011,-0.13995,2.6130002,9.4470005,,,,,,,,,,,,,,,,,,
1736676521020,-0.13005,2.604,9.397051,,,,,,,,,,,,,,,,,,
1736676521030,-0.13005,2.601,9.315001,,,,,,,,,,,,,,,,,,
1736676521041,-0.156,2.59395,9.222,,,,,,,,,,,,,,,,,,
1736676521050,-0.17805001,2.5560002,9.153001,,,,,,,,,,,,,,,,,,
1736676521061,-0.192,2.59395,9.15705,,,,,,,,,,,,,,,,,,
1736676521071,-0.20700002,2.6419501,9.177,,,,,,,,,,,,,,,,,,
1736676521080,-0.22800002,2.637,9.177,,,,,,,,,,,,,,,,,,
1736676521090,-0.231,2.66595,9.189,,,,,,,,,,,,,,,,,,
1736676521100,-0.231,2.7229502,9.21195,,,,,,,,,,,,,,,,,,
1736676521110,-0.22800002,2.766,9.24405,,,,,,,,,,,,,,,,,,
1736676521120,-0.26895002,2.7859502,9.330001,,,,,,,,,,,,,,,,,,
1736676521130,-0.29295,2.7880502,9.40905,,,,,,,,,,,,,,,,,,
1736676521141,-0.30705002,2.7810001,9.483001,,,,,,,,,,,,,,,,,,
1736676521151,-0.33600003,2.7570002,9.50895,,,,,,,,,,,,,,,,,,
1736676521161,-0.52995,2.6590502,9.50895,,,,,,,,,,,,,,,,,,
1736676521171,-0.53505003,2.6520002,9.556951,,,,,,,,,,,,,,,,,,
1736676521181,-0.36495003,2.7550502,9.526051,,,,,,,,,,,,,,,,,,
1736676521191,-0.24000001,2.80695,9.450001,,,,,,,,,,,,,,,,,,
1736676521201,-0.252,2.8290002,9.373051,,,,,,,,,,,,,,,,,,
1736676521211,-0.33600003,2.80695,9.315001,,,,,,,,,,,,,,,,,,
1736676521222,-0.45600003,2.766,9.253051,,,,,,,,,,,,,,,,,,
1736676521232,-0.49605003,2.7229502,9.21195,,,,,,,,,,,,,,,,,,
1736676521241,-0.47700003,2.7139502,9.2029505,,,,,,,,,,,,,,,,,,
1736676521251,-0.47505003,2.733,9.19095,,,,,,,,,,,,,,,,,,
1736676521261,-0.45105,2.77605,9.18105,,,,,,,,,,,,,,,,,,
1736676521271,-0.441,2.841,9.15495,,,,,,,,,,,,,,,,,,
1736676521281,-0.46995002,2.8890002,9.17895,,,,,,,,,,,,,,,,,,
1736676521291,-0.48195,2.9269502,9.241051,,,,,,,,,,,,,,,,,,
1736676521301,-0.47700003,2.9340003,9.32505,,,,,,,,,,,,,,,,,,
1736676521311,-0.48195,2.9290502,9.397051,,,,,,,,,,,,,,,,,,
1736676521322,-0.453,2.91,9.45195,,,,,,,,,,,,,,,,,,
1736676521332,-0.43905002,2.874,9.45405,,,,,,,,,,,,,,,,,,
1736676521341,-0.40500003,2.87895,9.529051,,,,,,,,,,,,,,,,,,
1736676521351,-0.35805002,2.93595,9.591001,,,,,,,,,,,,,,,,,,
1736676521361,-0.324,2.97495,9.574051,,,,,,,,,,,,,,,,,,
1736676521372,-0.28605002,2.9560502,9.529051,,,,,,,,,,,,,,,,,,
1736676521383,-0.25905,2.9269502,9.48495,,,,,,,,,,,,,,,,,,
1736676521393,-0.18495001,2.88105,9.45405,,,,,,,,,,,,,,,,,,
1736676521402,-0.14205001,2.8240502,9.45405,,,,,,,,,,,,,,,,,,
1736676521412,-0.10095,2.77605,9.460951,,,,,,,,,,,,,,,,,,
1736676521422,-0.08205,2.7550502,9.49995,,,,,,,,,,,,,,,,,,
1736676521432,-0.063,2.7949502,9.523951,,,,,,,,,,,,,,,,,,
1736676521442,-0.058050003,2.83395,9.47295,,,,,,,,,,,,,,,,,,
1736676521452,-0.09900001,2.9170501,9.3820505,,,,,,,,,,,,,,,,,,
1736676521462,-0.12495001,2.9479501,9.27,,,,,,,,,,,,,,,,,,
1736676521472,-0.12105001,2.9599502,9.15495,,,,,,,,,,,,,,,,,,
1736676521482,-0.08895,2.9479501,9.064051,,,,,,,,,,,,,,,,,,
1736676521492,-0.05595,2.946,9.033,,,,,,,,,,,,,,,,,,
1736676518505,,,,-10.5,-0.24375,-31.85625,,,,,,,,,,,,,,,
1736676518524,,,,-10.6125,-0.54375005,-31.800001,,,,,,,,,,,,,,,
1736676518544,,,,-10.856251,-0.1875,-31.612501,,,,,,,,,,,,,,,
1736676518565,,,,-11.1,-0.24375,-31.44375,,,,,,,,,,,,,,,
1736676518584,,,,-11.1,-0.056250002,-31.500002,,,,,,,,,,,,,,,
1736676518604,,,,-10.743751,0.0,-31.44375,,,,,,,,,,,,,,,
1736676518624,,,,-10.6125,-0.35625002,-31.556252,,,,,,,,,,,,,,,
1736676518645,,,,-10.14375,-0.54375005,-31.9125,,,,,,,,,,,,,,,
1736676518664,,,,-10.012501,-0.7875,-31.800001,,,,,,,,,,,,,,,
1736676518684,,,,-10.012501,-0.7875,-31.800001,,,,,,,,,,,,,,,
1736676518704,,,,-9.65625,-0.95625,-31.500002,,,,,,,,,,,,,,,
1736676518724,,,,-9.95625,-1.2,-31.25625,,,,,,,,,,,,,,,
1736676518744,,,,-9.65625,-1.44375,-31.25625,,,,,,,,,,,,,,,
1736676518764,,,,-9.543751,-1.3875,-31.0125,,,,,,,,,,,,,,,
1736676518784,,,,-9.712501,-1.0875001,-31.312502,,,,,,,,,,,,,,,
1736676518804,,,,-9.543751,-0.95625,-31.500002,,,,,,,,,,,,,,,
1736676518825,,,,-9.712501,-0.90000004,-30.843752,,,,,,,,,,,,,,,
1736676518844,,,,-9.900001,-1.25625,-30.956251,,,,,,,,,,,,,,,
1736676518864,,,,-10.012501,-1.44375,-30.54375,,,,,,,,,,,,,,,
1736676518885,,,,-10.3125,-1.5,-30.300001,,,,,,,,,,,,,,,
1736676518904,,,,-10.200001,-1.7437501,-30.900002,,,,,,,,,,,,,,,
1736676518924,,,,-10.44375,-1.44375,-30.956251,,,,,,,,,,,,,,,
1736676518944,,,,-10.6125,-1.44375,-31.2,,,,,,,,,,,,,,,
1736676518964,,,,-10.6125,-1.5,-31.25625,,,,,,,,,,,,,,,
1736676518985,,,,-10.8,-1.2,-31.143751,,,,,,,,,,,,,,,
1736676519004,,,,-10.6125,-0.95625,-30.656252,,,,,,,,,,,,,,,
1736676519024,,,,-10.14375,-1.0875001,-30.112501,,,,,,,,,,,,,,,
1736676519044,,,,-9.712501,-1.0875001,-30.056252,,,,,,,,,,,,,,,
1736676519064,,,,-9.356251,-1.1437501,-30.112501,,,,,,,,,,,,,,,
1736676519083,,,,-9.3,-1.44375,-30.54375,,,,,,,,,,,,,,,
1736676519103,,,,-9.6,-1.5562501,-30.712502,,,,,,,,,,,,,,,
1736676519124,,,,-9.900001,-1.8000001,-30.6,,,,,,,,,,,,,,,
1736676519143,,,,-9.95625,-1.9875001,-30.000002,,,,,,,,,,,,,,,
1736676519163,,,,-9.65625,-2.34375,-29.400002,,,,,,,,,,,,,,,
1736676519183,,,,-9.4125,-2.6437502,-29.400002,,,,,,,,,,,,,,,
1736676519203,,,,-9.356251,-2.7562501,-29.212502,,,,,,,,,,,,,,,
1736676519223,,,,-9.356251,-3.1875002,-30.000002,,,,,,,,,,,,,,,
1736676519243,,,,-9.4125,-3.35625,-30.000002,,,,,,,,,,,,,,,
1736676519263,,,,-9.6,-3.1875002,-29.812502,,,,,,,,,,,,,,,
1736676519284,,,,-9.84375,-3.24375,-30.000002,,,,,,,,,,,,,,,
1736676519303,,,,-9.712501,-3.3000002,-29.7,,,,,,,,,,,,,,,
1736676519323,,,,-10.14375,-3.05625,-29.5125,,,,,,,,,,,,,,,
1736676519343,,,,-10.012501,-3.3000002,-29.456251,,,,,,,,,,,,,,,
1736676519363,,,,-9.84375,-3.54375,-29.343752,,,,,,,,,,,,,,,
1736676519384,,,,-9.84375,-3.6000001,-29.1,,,,,,,,,,,,,,,
1736676519404,,,,-9.84375,-3.7875001,-29.04375,,,,,,,,,,,,,,,
1736676519425,,,,-9.900001,-3.9,-29.04375,,,,,,,,,,,,,,,
1736676519444,,,,-9.900001,-3.9,-28.612501,,,,,,,,,,,,,,,
1736676519464,,,,-9.95625,-4.2000003,-27.956251,,,,,,,,,,,,,,,
1736676519484,,,,-9.712501,-4.5,-28.143751,,,,,,,,,,,,,,,
1736676519504,,,,-9.543751,-4.6875,-27.712502,,,,,,,,,,,,,,,
1736676519524,,,,-9.356251,-4.6875,-27.712502,,,,,,,,,,,,,,,
1736676519544,,,,-9.543751,-4.55625,-28.44375,,,,,,,,,,,,,,,
1736676519564,,,,-9.243751,-4.74375,-28.143751,,,,,,,,,,,,,,,
1736676519584,,,,-9.0,-5.0437503,-27.900002,,,,,,,,,,,,,,,
1736676519605,,,,-8.94375,-5.7000003,-27.712502,,,,,,,,,,,,,,,
1736676519624,,,,-8.34375,-5.7562504,-27.300001,,,,,,,,,,,,,,,
1736676519645,,,,-8.75625,-6.05625,-27.6,,,,,,,,,,,,,,,
1736676519664,,,,-9.056251,-6.24375,-27.900002,,,,,,,,,,,,,,,
1736676519684,,,,-8.94375,-5.7562504,-28.143751,,,,,,,,,,,,,,,
1736676519705,,,,-9.056251,-6.05625,-27.956251,,,,,,,,,,,,,,,
1736676519724,,,,-9.0,-6.4875,-27.656252,,,,,,,,,,,,,,,
1736676519744,,,,-8.94375,-6.5437503,-27.300001,,,,,,,,,,,,,,,
1736676519764,,,,-8.94375,-7.2562504,-26.643751,,,,,,,,,,,,,,,
1736676519784,,,,-9.0,-7.55625,-26.400002,,,,,,,,,,,,,,,
1736676519804,,,,-8.700001,-7.8562503,-26.156252,,,,,,,,,,,,,,,
1736676519825,,,,-8.700001,-8.45625,-26.212502,,,,,,,,,,,,,,,
1736676519844,,,,-8.400001,-8.64375,-26.400002,,,,,,,,,,,,,,,
1736676519864,,,,-8.1,-9.1875,-27.000002,,,,,,,,,,,,,,,
1736676519884,,,,-8.043751,-9.243751,-27.300001,,,,,,,,,,,,,,,
1736676519904,,,,-7.8562503,-9.6,-27.54375,,,,,,,,,,,,,,,
1736676519924,,,,-8.15625,-9.900001,-27.656252,,,,,,,,,,,,,,,
1736676519944,,,,-8.15625,-10.200001,-27.112501,,,,,,,,,,,,,,,
1736676519964,,,,-8.1,-10.6875,-26.75625,,,,,,,,,,,,,,,
1736676519984,,,,-7.8,-10.743751,-26.812502,,,,,,,,,,,,,,,
1736676520004,,,,-7.74375,-11.043751,-26.75625,,,,,,,,,,,,,,,
1736676520025,,,,-7.55625,-11.34375,-27.000002,,,,,,,,,,,,,,,
1736676520045,,,,-7.2562504,-11.700001,-27.4125,,,,,,,,,,,,,,,
1736676520064,,,,-7.14375,-11.887501,-27.300001,,,,,,,,,,,,,,,
1736676520084,,,,-6.7125,-12.243751,-27.54375,,,,,,,,,,,,,,,
1736676520104,,,,-6.7125,-12.4875,-27.35625,,,,,,,,,,,,,,,
1736676520124,,,,-6.6562505,-12.7875,-27.243752,,,,,,,,,,,,,,,
1736676520144,,,,-6.7125,-13.387501,-27.300001,,,,,,,,,,,,,,,
1736676520165,,,,-6.6562505,-13.856251,-27.6,,,,,,,,,,,,,,,
1736676520184,,,,-6.7125,-14.400001,-28.143751,,,,,,,,,,,,,,,
1736676520204,,,,-6.8437505,-14.64375,-28.556252,,,,,,,,,,,,,,,
1736676520225,,,,-6.3,-14.94375,-29.04375,,,,,,,,,,,,,,,
1736676520244,,,,-6.3,-15.243751,-29.343752,,,,,,,,,,,,,,,
1736676520265,,,,-6.0,-15.4875,-29.400002,,,,,,,,,,,,,,,
1736676520284,,,,-6.0,-15.900001,-29.456251,,,,,,,,,,,,,,,
1736676520304,,,,-6.7125,-16.25625,-29.400002,,,,,,,,,,,,,,,
1736676520324,,,,-6.5437503,-15.900001,-29.400002,,,,,,,,,,,,,,,
1736676520344,,,,-6.6562505,-15.900001,-29.94375,,,,,,,,,,,,,,,
1736676520365,,,,-6.4125004,-15.656251,-30.54375,,,,,,,,,,,,,,,
1736676520384,,,,-6.3562503,-15.656251,-31.2,,,,,,,,,,,,,,,
1736676520404,,,,-6.9,-16.143751,-31.556252,,,,,,,,,,,,,,,
1736676520424,,,,-7.0125003,-16.087502,-31.500002,,,,,,,,,,,,,,,
1736676520444,,,,-7.6125,-16.25625,-31.500002,,,,,,,,,,,,,,,
1736676520464,,,,-7.6125,-16.25625,-32.04375,,,,,,,,,,,,,,,
1736676520484,,,,-7.74375,-16.3875,-32.5125,,,,,,,,,,,,,,,
1736676520505,,,,-7.8,-16.2,-33.300003,,,,,,,,,,,,,,,
1736676520524,,,,-7.8,-16.143751,-33.9,,,,,,,,,,,,,,,
1736676520545,,,,-7.8562503,-15.95625,-34.443752,,,,,,,,,,,,,,,
1736676520564,,,,-7.8562503,-15.7875,-34.800003,,,,,,,,,,,,,,,
1736676520585,,,,-8.15625,-15.7875,-35.100002,,,,,,,,,,,,,,,
1736676520605,,,,-8.212501,-15.243751,-35.2125,,,,,,,,,,,,,,,
1736676520624,,,,-8.1,-14.887501,-34.912502,,,,,,,,,,,,,,,
1736676520645,,,,-8.1,-14.45625,-35.100002,,,,,,,,,,,,,,,
1736676520664,,,,-7.9125004,-13.9875,-35.34375,,,,,,,,,,,,,,,
1736676520684,,,,-7.5000005,-13.500001,-35.8125,,,,,,,,,,,,,,,
1736676520704,,,,-7.74375,-12.95625,-36.112503,,,,,,,,,,,,,,,
1736676520724,,,,-7.55625,-12.056251,-36.412502,,,,,,,,,,,,,,,
1736676520744,,,,-7.74375,-11.75625,-36.35625,,,,,,,,,,,,,,,
1736676520765,,,,-7.8562503,-11.64375,-36.112503,,,,,,,,,,,,,,,
1736676520785,,,,-7.74375,-10.856251,-36.0,,,,,,,,,,,,,,,
1736676520804,,,,-8.1,-10.743751,-35.456253,,,,,,,,,,,,,,,
1736676520824,,,,-8.15625,-10.087501,-35.34375,,,,,,,,,,,,,,,
1736676520844,,,,-8.512501,-9.84375,-35.15625,,,,,,,,,,,,,,,
1736676520864,,,,-8.64375,-9.900001,-34.85625,,,,,,,,,,,,,,,
1736676520885,,,,-8.700001,-9.7875,-34.55625,,,,,,,,,,,,,,,
1736676520904,,,,-8.45625,-9.65625,-33.600002,,,,,,,,,,,,,,,
1736676520924,,,,-8.45625,-9.356251,-32.8125,,,,,,,,,,,,,,,
1736676520944,,,,-8.700001,-9.1875,-32.456253,,,,,,,,,,,,,,,
1736676520964,,,,-8.75625,-8.887501,-31.800001,,,,,,,,,,,,,,,
1736676520984,,,,-9.056251,-9.0,-31.85625,,,,,,,,,,,,,,,
1736676521005,,,,-8.8125,-8.94375,-31.556252,,,,,,,,,,,,,,,
1736676521024,,,,-8.94375,-8.94375,-30.712502,,,,,,,,,,,,,,,
1736676521044,,,,-9.3,-9.1875,-30.300001,,,,,,,,,,,,,,,
1736676521064,,,,-9.543751,-9.056251,-29.812502,,,,,,,,,,,,,,,
1736676521085,,,,-9.84375,-8.94375,-29.1,,,,,,,,,,,,,,,
1736676521104,,,,-9.95625,-9.0,-28.500002,,,,,,,,,,,,,,,
1736676521124,,,,-9.65625,-9.056251,-27.712502,,,,,,,,,,,,,,,
1736676521144,,,,-9.4125,-9.356251,-26.94375,,,,,,,,,,,,,,,
1736676521164,,,,-9.95625,-9.7875,-26.643751,,,,,,,,,,,,,,,
1736676521184,,,,-9.95625,-9.900001,-26.7,,,,,,,,,,,,,,,
1736676521204,,,,-10.44375,-10.387501,-26.400002,,,,,,,,,,,,,,,
1736676521224,,,,-10.556251,-10.5,-26.343752,,,,,,,,,,,,,,,
1736676521244,,,,-10.44375,-10.856251,-26.1,,,,,,,,,,,,,,,
1736676521264,,,,-10.44375,-11.15625,-25.2,,,,,,,,,,,,,,,
1736676521284,,,,-10.012501,-11.587501,-25.2,,,,,,,,,,,,,,,
1736676521305,,,,-10.3125,-12.3,-24.956251,,,,,,,,,,,,,,,
1736676521324,,,,-10.25625,-12.900001,-24.35625,,,,,,,,,,,,,,,
1736676521345,,,,-10.5,-13.556251,-24.4125,,,,,,,,,,,,,,,
1736676521364,,,,-10.44375,-13.856251,-24.243752,,,,,,,,,,,,,,,
1736676521384,,,,-10.200001,-13.8,-23.643751,,,,,,,,,,,,,,,
1736676521404,,,,-10.012501,-13.556251,-23.456251,,,,,,,,,,,,,,,
1736676521423,,,,-9.900001,-13.856251,-23.212502,,,,,,,,,,,,,,,
1736676521443,,,,-10.200001,-14.343751,-22.85625,,,,,,,,,,,,,,,
1736676521463,,,,-10.3125,-14.887501,-22.743752,,,,,,,,,,,,,,,
1736676521484,,,,-10.556251,-15.543751,-22.556252,,,,,,,,,,,,,,,
1736676518490,,,,,,,0.017405,3.116048,9.298404,,,,,,,,,,,,
1736676518500,,,,,,,0.021398,3.12229,9.296304,,,,,,,,,,,,
1736676518509,,,,,,,0.021307,3.123348,9.295947,,,,,,,,,,,,
1736676518519,,,,,,,0.02536,3.125842,9.2951,,,,,,,,,,,,
1736676518530,,,,,,,0.024822,3.129358,9.293919,,,,,,,,,,,,
1736676518540,,,,,,,0.025544,3.117007,9.298063,,,,,,,,,,,,
1736676518549,,,,,,,0.03191,3.112252,9.299637,,,,,,,,,,,,
1736676518559,,,,,,,0.032255,3.101757,9.303141,,,,,,,,,,,,
1736676518570,,,,,,,0.031529,3.09102,9.306719,,,,,,,,,,,,
1736676518580,,,,,,,0.035277,3.097149,9.304667,,,,,,,,,,,,
1736676518590,,,,,,,0.038533,3.097791,9.30444,,,,,,,,,,,,
1736676518600,,,,,,,0.034396,3.114994,9.298712,,,,,,,,,,,,
1736676518610,,,,,,,0.028751,3.126199,9.294971,,,,,,,,,,,,
1736676518620,,,,,,,0.013,3.135325,9.291932,,,,,,,,,,,,
1736676518631,,,,,,,0.002725,3.142188,9.289619,,,,,,,,,,,,
1736676518641,,,,,,,-0.008975,3.148376,9.287521,,,,,,,,,,,,
1736676518650,,,,,,,-0.017572,3.150464,9.286801,,,,,,,,,,,,
1736676518660,,,,,,,-0.027829,3.147417,9.287807,,,,,,,,,,,,
1736676518670,,,,,,,-0.03792,3.149105,9.287201,,,,,,,,,,,,
1736676518680,,,,,,,-0.053523,3.143461,9.289037,,,,,,,,,,,,
1736676518690,,,,,,,-0.067744,3.146424,9.287941,,,,,,,,,,,,
1736676518700,,,,,,,-0.073544,3.143499,9.288889,,,,,,,,,,,,
1736676518711,,,,,,,-0.082104,3.140204,9.289929,,,,,,,,,,,,
1736676518721,,,,,,,-0.07648,3.149973,9.286671,,,,,,,,,,,,
1736676518730,,,,,,,-0.070358,3.149393,9.286917,,,,,,,,,,,,
1736676518740,,,,,,,-0.063443,3.171707,9.279366,,,,,,,,,,,,
1736676518750,,,,,,,-0.05675,3.182085,9.275856,,,,,,,,,,,,
1736676518760,,,,,,,-0.057261,3.194798,9.271482,,,,,,,,,,,,
1736676518770,,,,,,,-0.053711,3.206656,9.267407,,,,,,,,,,,,
1736676518780,,,,,,,-0.062952,3.208308,9.26678,,,,,,,,,,,,
1736676518790,,,,,,,-0.070101,3.212942,9.265122,,,,,,,,,,,,
1736676518800,,,,,,,-0.087345,3.208027,9.266679,,,,,,,,,,,,
1736676518810,,,,,,,-0.098656,3.205701,9.26737,,,,,,,,,,,,
1736676518821,,,,,,,-0.103623,3.194347,9.271234,,,,,,,,,,,,
1736676518831,,,,,,,-0.113676,3.185329,9.27422,,,,,,,,,,,,
1736676518841,,,,,,,-0.103833,3.170774,9.279322,,,,,,,,,,,,
1736676518851,,,,,,,-0.097849,3.161517,9.282542,,,,,,,,,,,,
1736676518861,,,,,,,-0.088863,3.149798,9.286616,,,,,,,,,,,,
1736676518871,,,,,,,-0.080325,3.140384,9.289885,,,,,,,,,,,,
1736676518881,,,,,,,-0.086555,3.145351,9.288146,,,,,,,,,,,,
1736676518891,,,,,,,-0.086954,3.143617,9.288729,,,,,,,,,,,,
1736676518901,,,,,,,-0.085307,3.151325,9.286133,,,,,,,,,,,,
1736676518911,,,,,,,-0.087562,3.157692,9.28395,,,,,,,,,,,,
1736676518921,,,,,,,-0.093069,3.159288,9.283353,,,,,,,,,,,,
1736676518931,,,,,,,-0.093218,3.161508,9.282594,,,,,,,,,,,,
1736676518941,,,,,,,-0.088194,3.148386,9.287105,,,,,,,,,,,,
1736676518951,,,,,,,-0.093679,3.13739,9.290772,,,,,,,,,,,,
1736676518961,,,,,,,-0.087099,3.1196,9.296824,,,,,,,,,,,,
1736676518971,,,,,,,-0.07913,3.105173,9.301723,,,,,,,,,,,,
1736676518981,,,,,,,-0.084842,3.095401,9.304929,,,,,,,,,,,,
1736676518991,,,,,,,-0.084503,3.084471,9.308561,,,,,,,,,,,,
1736676519001,,,,,,,-0.08785,3.086714,9.307785,,,,,,,,,,,,
1736676519012,,,,,,,-0.094899,3.089257,9.30687,,,,,,,,,,,,
1736676519022,,,,,,,-0.090535,3.107389,9.300878,,,,,,,,,,,,
1736676519031,,,,,,,-0.088115,3.117151,9.297633,,,,,,,,,,,,
1736676519041,,,,,,,-0.090486,3.130482,9.293133,,,,,,,,,,,,
1736676519052,,,,,,,-0.09025,3.146205,9.287822,,,,,,,,,,,,
1736676519062,,,,,,,-0.101758,3.138391,9.290348,,,,,,,,,,,,
1736676519072,,,,,,,-0.113418,3.142492,9.288826,,,,,,,,,,,,
1736676519082,,,,,,,-0.113138,3.126497,9.294225,,,,,,,,,,,,
1736676519092,,,,,,,-0.117423,3.115277,9.297939,,,,,,,,,,,,
1736676519102,,,,,,,-0.117998,3.123253,9.295256,,,,,,,,,,,,
1736676519112,,,,,,,-0.111691,3.116021,9.29776,,,,,,,,,,,,
1736676519122,,,,,,,-0.117059,3.128874,9.293377,,,,,,,,,,,,
1736676519132,,,,,,,-0.12134,3.136531,9.29074,,,,,,,,,,,,
1736676519142,,,,,,,-0.123938,3.132765,9.291976,,,,,,,,,,,,
1736676519152,,,,,,,-0.127574,3.137393,9.290366,,,,,,,,,,,,
1736676519162,,,,,,,-0.139599,3.124194,9.29464,,,,,,,,,,,,
1736676519172,,,,,,,-0.144116,3.120291,9.29588,,,,,,,,,,,,
1736676519182,,,,,,,-0.148292,3.118066,9.296563,,,,,,,,,,,,
1736676519192,,,,,,,-0.158726,3.112659,9.298201,,,,,,,,,,,,
1736676519202,,,,,,,-0.155306,3.126287,9.293687,,,,,,,,,,,,
1736676519213,,,,,,,-0.153438,3.130743,9.292218,,,,,,,,,,,,
1736676519223,,,,,,,-0.155718,3.146147,9.286975,,,,,,,,,,,,
1736676519233,,,,,,,-0.155201,3.158889,9.282657,,,,,,,,,,,,
1736676519243,,,,,,,-0.153206,3.165001,9.280608,,,,,,,,,,,,
1736676519252,,,,,,,-0.154227,3.171349,9.278422,,,,,,,,,,,,
1736676519262,,,,,,,-0.148968,3.160166,9.282325,,,,,,,,,,,,
1736676519272,,,,,,,-0.144667,3.158765,9.28287,,,,,,,,,,,,
1736676519283,,,,,,,-0.141252,3.147399,9.286781,,,,,,,,,,,,
1736676519293,,,,,,,-0.134314,3.134151,9.291363,,,,,,,,,,,,
1736676519303,,,,,,,-0.130237,3.129045,9.293143,,,,,,,,,,,,
1736676519313,,,,,,,-0.125637,3.120486,9.296084,,,,,,,,,,,,
1736676519323,,,,,,,-0.120917,3.121035,9.295962,,,,,,,,,,,,
1736676519334,,,,,,,-0.116892,3.117328,9.297257,,,,,,,,,,,,
1736676519344,,,,,,,-0.12345,3.116164,9.297563,,,,,,,,,,,,
1736676519354,,,,,,,-0.126546,3.117367,9.297116,,,,,,,,,,,,
1736676519364,,,,,,,-0.132674,3.117745,9.296906,,,,,,,,,,,,
1736676519374,,,,,,,-0.134835,3.117763,9.29687,,,,,,,,,,,,
1736676519384,,,,,,,-0.1392,3.122398,9.295248,,,,,,,,,,,,
1736676519394,,,,,,,-0.142664,3.127739,9.293398,,,,,,,,,,,,
1736676519404,,,,,,,-0.143612,3.137844,9.289979,,,,,,,,,,,,
1736676519413,,,,,,,-0.147396,3.143466,9.288019,,,,,,,,,,,,
1736676519423,,,,,,,-0.148188,3.147881,9.28651,,,,,,,,,,,,
1736676519434,,,,,,,-0.149865,3.154451,9.284255,,,,,,,,,,,,
1736676519444,,,,,,,-0.157588,3.154194,9.284211,,,,,,,,,,,,
1736676519453,,,,,,,-0.164598,3.1554,9.283684,,,,,,,,,,,,
1736676519463,,,,,,,-0.164877,3.148594,9.285988,,,,,,,,,,,,
1736676519474,,,,,,,-0.166059,3.143703,9.287623,,,,,,,,,,,,
1736676519484,,,,,,,-0.166302,3.135917,9.290253,,,,,,,,,,,,
1736676519493,,,,,,,-0.160682,3.126232,9.293614,,,,,,,,,,,,
1736676519503,,,,,,,-0.160258,3.124965,9.294047,,,,,,,,,,,,
1736676519515,,,,,,,-0.160788,3.118531,9.296201,,,,,,,,,,,,
1736676519525,,,,,,,-0.155857,3.123052,9.294766,,,,,,,,,,,,
1736676519535,,,,,,,-0.158811,3.124997,9.294061,,,,,,,,,,,,
1736676519545,,,,,,,-0.157492,3.122351,9.294973,,,,,,,,,,,,
1736676519555,,,,,,,-0.156207,3.125404,9.293968,,,,,,,,,,,,
1736676519565,,,,,,,-0.153113,3.111684,9.298623,,,,,,,,,,,,
1736676519574,,,,,,,-0.153235,3.105757,9.3006,,,,,,,,,,,,
1736676519584,,,,,,,-0.153132,3.091834,9.305243,,,,,,,,,,,,
1736676519595,,,,,,,-0.152215,3.081883,9.308557,,,,,,,,,,,,
1736676519605,,,,,,,-0.150472,3.078819,9.309597,,,,,,,,,,,,
1736676519614,,,,,,,-0.146657,3.069439,9.312756,,,,,,,,,,,,
1736676519624,,,,,,,-0.149528,3.086296,9.307137,,,,,,,,,,,,
1736676519635,,,,,,,-0.146067,3.090298,9.305865,,,,,,,,,,,,
1736676519645,,,,,,,-0.148108,3.10351,9.301434,,,,,,,,,,,,
1736676519655,,,,,,,-0.155072,3.116571,9.296952,,,,,,,,,,,,
1736676519665,,,,,,,-0.158891,3.104211,9.301023,,,,,,,,,,,,
1736676519675,,,,,,,-0.158937,3.105058,9.300738,,,,,,,,,,,,
1736676519685,,,,,,,-0.163077,3.087022,9.306669,,,,,,,,,,,,
1736676519694,,,,,,,-0.165625,3.074792,9.310672,,,,,,,,,,,,
1736676519704,,,,,,,-0.158914,3.060955,9.315348,,,,,,,,,,,,
1736676519714,,,,,,,-0.161368,3.046331,9.320098,,,,,,,,,,,,
1736676519724,,,,,,,-0.156931,3.047296,9.319858,,,,,,,,,,,,
1736676519735,,,,,,,-0.152003,3.042457,9.32152,,,,,,,,,,,,
1736676519746,,,,,,,-0.150658,3.055402,9.317308,,,,,,,,,,,,
1736676519756,,,,,,,-0.147036,3.060593,9.315661,,,,,,,,,,,,
1736676519766,,,,,,,-0.146868,3.066215,9.313813,,,,,,,,,,,,
1736676519776,,,,,,,-0.146109,3.074194,9.311196,,,,,,,,,,,,
1736676519786,,,,,,,-0.142589,3.066535,9.313776,,,,,,,,,,,,
1736676519795,,,,,,,-0.138946,3.063649,9.314783,,,,,,,,,,,,
1736676519805,,,,,,,-0.132188,3.055958,9.317408,,,,,,,,,,,,
1736676519815,,,,,,,-0.129768,3.046737,9.32046,,,,,,,,,,,,
1736676519825,,,,,,,-0.125873,3.037278,9.323599,,,,,,,,,,,,
1736676519836,,,,,,,-0.125898,3.033843,9.324718,,,,,,,,,,,,
1736676519846,,,,,,,-0.133219,3.018098,9.329724,,,,,,,,,,,,
1736676519855,,,,,,,-0.136124,3.010216,9.332228,,,,,,,,,,,,
1736676519865,,,,,,,-0.138542,3.002148,9.334789,,,,,,,,,,,,
1736676519875,,,,,,,-0.139432,2.989203,9.338928,,,,,,,,,,,,
1736676519885,,,,,,,-0.13602,2.991512,9.338241,,,,,,,,,,,,
1736676519896,,,,,,,-0.134917,2.988143,9.339335,,,,,,,,,,,,
1736676519906,,,,,,,-0.134732,2.981706,9.341396,,,,,,,,,,,,
1736676519915,,,,,,,-0.131876,2.981219,9.341591,,,,,,,,,,,,
1736676519925,,,,,,,-0.136634,2.972475,9.344309,,,,,,,,,,,,
1736676519936,,,,,,,-0.141956,2.966832,9.346023,,,,,,,,,,,,
1736676519946,,,,,,,-0.14268,2.962145,9.347499,,,,,,,,,,,,
1736676519955,,,,,,,-0.146247,2.958688,9.348539,,,,,,,,,,,,
1736676519965,,,,,,,-0.147302,2.96667,9.345992,,,,,,,,,,,,
1736676519976,,,,,,,-0.148052,2.968503,9.3454,,,,,,,,,,,,
1736676519986,,,,,,,-0.153964,2.973004,9.343872,,,,,,,,,,,,
1736676519996,,,,,,,-0.155691,2.976096,9.342858,,,,,,,,,,,,
1736676520006,,,,,,,-0.165661,2.972222,9.343919,,,,,,,,,,,,
1736676520017,,,,,,,-0.171766,2.968793,9.3449,,,,,,,,,,,,
1736676520027,,,,,,,-0.167367,2.965447,9.346042,,,,,,,,,,,,
1736676520036,,,,,,,-0.168588,2.961811,9.347174,,,,,,,,,,,,
1736676520046,,,,,,,-0.168224,2.959189,9.348011,,,,,,,,,,,,
1736676520056,,,,,,,-0.163524,2.960157,9.347788,,,,,,,,,,,,
1736676520066,,,,,,,-0.171915,2.956281,9.348863,,,,,,,,,,,,
1736676520076,,,,,,,-0.17351,2.955284,9.349148,,,,,,,,,,,,
1736676520086,,,,,,,-0.174971,2.959232,9.347873,,,,,,,,,,,,
1736676520097,,,,,,,-0.178793,2.960379,9.347439,,,,,,,,,,,,
1736676520107,,,,,,,-0.178958,2.963213,9.346535,,,,,,,,,,,,
1736676520117,,,,,,,-0.179959,2.964552,9.346092,,,,,,,,,,,,
1736676520127,,,,,,,-0.183839,2.973588,9.343145,,,,,,,,,,,,
1736676520137,,,,,,,-0.187266,2.976606,9.342116,,,,,,,,,,,,
1736676520147,,,,,,,-0.19519,2.989978,9.337684,,,,,,,,,,,,
1736676520156,,,,,,,-0.196566,2.997716,9.335174,,,,,,,,,,,,
1736676520166,,,,,,,-0.202362,3.000846,9.334043,,,,,,,,,,,,
1736676520177,,,,,,,-0.210077,3.006263,9.332129,,,,,,,,,,,,
1736676520187,,,,,,,-0.215154,2.994945,9.335655,,,,,,,,,,,,
1736676520196,,,,,,,-0.218138,2.991843,9.336576,,,,,,,,,,,,
1736676520207,,,,,,,-0.212761,2.97951,9.340645,,,,,,,,,,,,
1736676520217,,,,,,,-0.212133,2.971921,9.343078,,,,,,,,,,,,
1736676520227,,,,,,,-0.203814,2.965613,9.345267,,,,,,,,,,,,
1736676520238,,,,,,,-0.198111,2.958826,9.347538,,,,,,,,,,,,
1736676520248,,,,,,,-0.198977,2.950294,9.350216,,,,,,,,,,,,
1736676520257,,,,,,,-0.197754,2.945854,9.351644,,,,,,,,,,,,
1736676520267,,,,,,,-0.195409,2.937552,9.354305,,,,,,,,,,,,
1736676520277,,,,,,,-0.189689,2.931343,9.35637,,,,,,,,,,,,
1736676520287,,,,,,,-0.183944,2.940674,9.353556,,,,,,,,,,,,
1736676520297,,,,,,,-0.184494,2.939325,9.353968,,,,,,,,,,,,
1736676520307,,,,,,,-0.190694,2.944223,9.352305,,,,,,,,,,,,
1736676520317,,,,,,,-0.188693,2.951321,9.350108,,,,,,,,,,,,
1736676520327,,,,,,,-0.182347,2.960596,9.347301,,,,,,,,,,,,
1736676520337,,,,,,,-0.17896,2.964468,9.346138,,,,,,,,,,,,
1736676520347,,,,,,,-0.18757,2.976564,9.342123,,,,,,,,,,,,
1736676520357,,,,,,,-0.191096,2.985443,9.339218,,,,,,,,,,,,
1736676520367,,,,,,,-0.205533,2.989524,9.337606,,,,,,,,,,,,
1736676520378,,,,,,,-0.216111,2.995476,9.33546,,,,,,,,,,,,
1736676520388,,,,,,,-0.225226,2.988855,9.337365,,,,,,,,,,,,
1736676520397,,,,,,,-0.23807,2.98783,9.337378,,,,,,,,,,,,
1736676520407,,,,,,,-0.230751,2.975874,9.341379,,,,,,,,,,,,
1736676520417,,,,,,,-0.228505,2.963831,9.34526,,,,,,,,,,,,
1736676520427,,,,,,,-0.218628,2.953265,9.348842,,,,,,,,,,,,
1736676520438,,,,,,,-0.210261,2.94243,9.352448,,,,,,,,,,,,
1736676520448,,,,,,,-0.21113,2.936899,9.354169,,,,,,,,,,,,
1736676520459,,,,,,,-0.20745,2.9327,9.355568,,,,,,,,,,,,
1736676520469,,,,,,,-0.209812,2.927954,9.357,,,,,,,,,,,,
1736676520478,,,,,,,-0.211896,2.927842,9.356988,,,,,,,,,,,,
1736676520488,,,,,,,-0.212476,2.91933,9.359634,,,,,,,,,,,,
1736676520498,,,,,,,-0.215774,2.915866,9.36064,,,,,,,,,,,,
1736676520508,,,,,,,-0.215002,2.911064,9.362152,,,,,,,,,,,,
1736676520518,,,,,,,-0.218817,2.906597,9.363451,,,,,,,,,,,,
1736676520528,,,,,,,-0.222792,2.898466,9.365876,,,,,,,,,,,,
1736676520538,,,,,,,-0.220666,2.891528,9.368071,,,,,,,,,,,,
1736676520548,,,,,,,-0.219722,2.882295,9.370939,,,,,,,,,,,,
1736676520559,,,,,,,-0.220128,2.873106,9.37375,,,,,,,,,,,,
1736676520569,,,,,,,-0.211237,2.86878,9.37528,,,,,,,,,,,,
1736676520579,,,,,,,-0.204117,2.862277,9.377427,,,,,,,,,,,,
1736676520589,,,,,,,-0.196752,2.854201,9.380042,,,,,,,,,,,,
1736676520599,,,,,,,-0.193461,2.852095,9.380754,,,,,,,,,,,,
1736676520608,,,,,,,-0.186415,2.832066,9.386961,,,,,,,,,,,,
1736676520618,,,,,,,-0.183396,2.821992,9.390056,,,,,,,,,,,,
1736676520628,,,,,,,-0.174063,2.809666,9.393929,,,,,,,,,,,,
1736676520638,,,,,,,-0.16638,2.794421,9.398612,,,,,,,,,,,,
1736676520648,,,,,,,-0.165834,2.803427,9.395941,,,,,,,,,,,,
1736676520658,,,,,,,-0.158154,2.799626,9.397206,,,,,,,,,,,,
1736676520669,,,,,,,-0.178353,2.803702,9.395628,,,,,,,,,,,,
1736676520679,,,,,,,-0.191869,2.809301,9.39369,,,,,,,,,,,,
1736676520689,,,,,,,-0.208901,2.806058,9.3943,,,,,,,,,,,,
1736676520699,,,,,,,-0.240286,2.793507,9.397301,,,,,,,,,,,,
1736676520709,,,,,,,-0.253198,2.765371,9.405302,,,,,,,,,,,,
1736676520719,,,,,,,-0.271957,2.767376,9.404179,,,,,,,,,,,,
1736676520729,,,,,,,-0.293502,2.724073,9.41615,,,,,,,,,,,,
1736676520739,,,,,,,-0.273721,2.692747,9.425746,,,,,,,,,,,,
1736676520749,,,,,,,-0.264478,2.68123,9.429292,,,,,,,,,,,,
1736676520760,,,,,,,-0.263296,2.679313,9.429874,,,,,,,,,,,,
1736676520770,,,,,,,-0.251829,2.703508,9.423287,,,,,,,,,,,,
1736676520780,,,,,,,-0.242181,2.721385,9.418393,,,,,,,,,,,,
1736676520790,,,,,,,-0.211313,2.734094,9.415451,,,,,,,,,,,,
1736676520800,,,,,,,-0.205008,2.742733,9.413069,,,,,,,,,,,,
1736676520810,,,,,,,-0.222473,2.775514,9.403055,,,,,,,,,,,,
1736676520819,,,,,,,-0.22588,2.778305,9.402148,,,,,,,,,,,,
1736676520829,,,,,,,-0.221908,2.783454,9.400726,,,,,,,,,,,,
1736676520839,,,,,,,-0.221101,2.791458,9.398377,,,,,,,,,,,,
1736676520849,,,,,,,-0.195411,2.758051,9.408805,,,,,,,,,,,,
1736676520859,,,,,,,-0.176915,2.747634,9.412214,,,,,,,,,,,,
1736676520869,,,,,,,-0.149369,2.706494,9.424599,,,,,,,,,,,,
1736676520880,,,,,,,-0.131318,2.687224,9.430377,,,,,,,,,,,,
1736676520890,,,,,,,-0.124557,2.686392,9.430705,,,,,,,,,,,,
1736676520900,,,,,,,-0.117952,2.678541,9.433027,,,,,,,,,,,,
1736676520911,,,,,,,-0.137417,2.708754,9.42413,,,,,,,,,,,,
1736676520921,,,,,,,-0.146275,2.720483,9.420618,,,,,,,,,,,,
1736676520931,,,,,,,-0.158904,2.741628,9.414277,,,,,,,,,,,,
1736676520941,,,,,,,-0.166595,2.754766,9.410307,,,,,,,,,,,,
1736676520951,,,,,,,-0.170736,2.761081,9.408384,,,,,,,,,,,,
1736676520960,,,,,,,-0.176897,2.763889,9.407446,,,,,,,,,,,,
1736676520970,,,,,,,-0.175805,2.756301,9.409696,,,,,,,,,,,,
1736676520981,,,,,,,-0.174071,2.752124,9.410951,,,,,,,,,,,,
1736676520991,,,,,,,-0.172603,2.736411,9.415558,,,,,,,,,,,,
1736676521001,,,,,,,-0.170505,2.728668,9.417842,,,,,,,,,,,,
1736676521011,,,,,,,-0.166108,2.712414,9.422614,,,,,,,,,,,,
1736676521020,,,,,,,-0.167381,2.704528,9.424855,,,,,,,,,,,,
1736676521030,,,,,,,-0.164137,2.699431,9.426374,,,,,,,,,,,,
1736676521040,,,,,,,-0.161895,2.696065,9.427377,,,,,,,,,,,,
1736676521050,,,,,,,-0.166412,2.696493,9.427176,,,,,,,,,,,,
1736676521061,,,,,,,-0.170608,2.69893,9.426405,,,,,,,,,,,,
1736676521071,,,,,,,-0.18005,2.705568,9.424326,,,,,,,,,,,,
1736676521080,,,,,,,-0.187909,2.706587,9.423881,,,,,,,,,,,,
1736676521090,,,,,,,-0.197935,2.710486,9.422553,,,,,,,,,,,,
1736676521100,,,,,,,-0.205418,2.709674,9.422626,,,,,,,,,,,,
1736676521110,,,,,,,-0.21071,2.715534,9.420821,,,,,,,,,,,,
1736676521121,,,,,,,-0.215659,2.716158,9.420528,,,,,,,,,,,,
1736676521131,,,,,,,-0.225335,2.715806,9.420406,,,,,,,,,,,,
1736676521141,,,,,,,-0.23189,2.716457,9.420059,,,,,,,,,,,,
1736676521151,,,,,,,-0.241937,2.710892,9.421409,,,,,,,,,,,,
1736676521161,,,,,,,-0.247051,2.7097,9.421618,,,,,,,,,,,,
1736676521171,,,,,,,-0.26834,2.69854,9.424238,,,,,,,,,,,,
1736676521181,,,,,,,-0.28406,2.6924,9.425535,,,,,,,,,,,,
1736676521191,,,,,,,-0.272808,2.70303,9.422824,,,,,,,,,,,,
1736676521202,,,,,,,-0.274292,2.70957,9.420902,,,,,,,,,,,,
1736676521212,,,,,,,-0.27641,2.727188,9.415756,,,,,,,,,,,,
1736676521221,,,,,,,-0.273072,2.745389,9.410563,,,,,,,,,,,,
1736676521231,,,,,,,-0.293789,2.758589,9.406078,,,,,,,,,,,,
1736676521242,,,,,,,-0.310626,2.774101,9.400975,,,,,,,,,,,,
1736676521252,,,,,,,-0.328209,2.787486,9.396418,,,,,,,,,,,,
1736676521261,,,,,,,-0.344468,2.797988,9.392712,,,,,,,,,,,,
1736676521271,,,,,,,-0.356128,2.819069,9.385972,,,,,,,,,,,,
1736676521281,,,,,,,-0.369219,2.831915,9.381598,,,,,,,,,,,,
1736676521291,,,,,,,-0.385806,2.853306,9.374446,,,,,,,,,,,,
1736676521301,,,,,,,-0.400999,2.869946,9.368728,,,,,,,,,,,,
1736676521311,,,,,,,-0.413486,2.881236,9.364717,,,,,,,,,,,,
1736676521322,,,,,,,-0.421897,2.891838,9.361073,,,,,,,,,,,,
1736676521332,,,,,,,-0.423594,2.892009,9.360945,,,,,,,,,,,,
1736676521342,,,,,,,-0.423828,2.893487,9.360476,,,,,,,,,,,,
1736676521352,,,,,,,-0.412512,2.892668,9.361236,,,,,,,,,,,,
1736676521361,,,,,,,-0.403295,2.888493,9.362926,,,,,,,,,,,,
1736676521372,,,,,,,-0.382955,2.890792,9.36307,,,,,,,,,,,,
1736676521383,,,,,,,-0.367702,2.894029,9.362683,,,,,,,,,,,,
1736676521393,,,,,,,-0.344206,2.893647,9.363693,,,,,,,,,,,,
1736676521403,,,,,,,-0.330836,2.897188,9.363079,,,,,,,,,,,,
1736676521413,,,,,,,-0.307184,2.890873,9.365838,,,,,,,,,,,,
1736676521422,,,,,,,-0.29007,2.890797,9.366406,,,,,,,,,,,,
1736676521432,,,,,,,-0.267241,2.889187,9.367584,,,,,,,,,,,,
1736676521442,,,,,,,-0.246912,2.887024,9.368811,,,,,,,,,,,,
1736676521452,,,,,,,-0.229139,2.901531,9.364779,,,,,,,,,,,,
1736676521462,,,,,,,-0.208719,2.906524,9.363709,,,,,,,,,,,,
1736676521472,,,,,,,-0.194314,2.928086,9.357298,,,,,,,,,,,,
1736676521482,,,,,,,-0.181244,2.94234,9.353088,,,,,,,,,,,,
1736676521492,,,,,,,-0.164949,2.959068,9.348111,,,,,,,,,,,,
1736676518489,,,,,,,,,,0.0251625,0.021724999,0.011275,,,,,,,,,
1736676518499,,,,,,,,,,0.0240625,0.0292875,0.0188375,,,,,,,,,
1736676518509,,,,,,,,,,0.0177375,0.0419375,0.0262625,,,,,,,,,
1736676518519,,,,,,,,,,0.00495,0.0697125,0.0262625,,,,,,,,,
1736676518529,,,,,,,,,,-0.003575,0.0686125,0.0177375,,,,,,,,,
1736676518539,,,,,,,,,,-0.004675,0.038775,0.00605,,,,,,,,,
1736676518550,,,,,,,,,,0.00275,0.0100375,-0.0078375,,,,,,,,,
1736676518560,,,,,,,,,,0.014575,0.0015125,-0.0089375,,,,,,,,,
1736676518569,,,,,,,,,,0.030524999,-5.5E-4,-0.0078375,,,,,,,,,
1736676518579,,,,,,,,,,0.047575,-0.0122375,-0.0121,,,,,,,,,
1736676518591,,,,,,,,,,0.0559625,-0.0037125,-0.011,,,,,,,,,
1736676518601,,,,,,,,,,0.055,0.0259875,-0.0089375,,,,,,,,,
1736676518610,,,,,,,,,,0.0433125,0.056925,-0.011,,,,,,,,,
1736676518620,,,,,,,,,,0.0240625,0.0686125,-0.0121,,,,,,,,,
1736676518630,,,,,,,,,,0.0017875,0.055825,-0.0099,,,,,,,,,
1736676518640,,,,,,,,,,-0.019524999,0.025024999,-0.0078375,,,,,,,,,
1736676518650,,,,,,,,,,-0.0334125,0.007975,-0.004675,,,,,,,,,
1736676518660,,,,,,,,,,-0.0301125,0.021724999,-0.001375,,,,,,,,,
1736676518670,,,,,,,,,,-0.0121,0.055825,0.0092124995,,,,,,,,,
1736676518680,,,,,,,,,,0.0209,0.0759,0.0187,,,,,,,,,
1736676518690,,,,,,,,,,0.0570625,0.0716375,0.0187,,,,,,,,,
1736676518700,,,,,,,,,,0.0837375,0.0578875,0.0092124995,,,,,,,,,
1736676518710,,,,,,,,,,0.096525,0.0386375,-0.004675,,,,,,,,,
1736676518720,,,,,,,,,,0.0922625,0.0132,-0.0226875,,,,,,,,,
1736676518730,,,,,,,,,,0.0730125,-0.013475,-0.035475,,,,,,,,,
1736676518740,,,,,,,,,,0.0411125,-0.030524999,-0.035475,,,,,,,,,
1736676518751,,,,,,,,,,0.0103124995,-0.0336875,-0.0334125,,,,,,,,,
1736676518761,,,,,,,,,,-0.014162499,-0.031625,-0.02915,,,,,,,,,
1736676518770,,,,,,,,,,-0.0323125,-0.0251625,-0.0259875,,,,,,,,,
1736676518780,,,,,,,,,,-0.0386375,-0.0092124995,-0.018424999,,,,,,,,,
1736676518791,,,,,,,,,,-0.0419375,0.011,-0.0100375,,,,,,,,,
1736676518801,,,,,,,,,,-0.0429,0.018424999,0.00275,,,,,,,,,
1736676518810,,,,,,,,,,-0.044,0.019524999,0.0155375,,,,,,,,,
1736676518821,,,,,,,,,,-0.0462,0.018424999,0.0251625,,,,,,,,,
1736676518831,,,,,,,,,,-0.0462,0.0089375,0.027224999,,,,,,,,,
1736676518841,,,,,,,,,,-0.0386375,-0.00495,0.0198,,,,,,,,,
1736676518851,,,,,,,,,,-0.0323125,-0.012375,0.00275,,,,,,,,,
1736676518861,,,,,,,,,,-0.019524999,-0.013475,-0.0163625,,,,,,,,,
1736676518871,,,,,,,,,,-0.001375,-0.0081124995,-0.0312125,,,,,,,,,
1736676518881,,,,,,,,,,0.0177375,0.001375,-0.0312125,,,,,,,,,
1736676518891,,,,,,,,,,0.0325875,0.011,-0.020624999,,,,,,,,,
1736676518901,,,,,,,,,,0.03575,0.0132,-0.0100375,,,,,,,,,
1736676518912,,,,,,,,,,0.028324999,0.0067375,-0.004675,,,,,,,,,
1736676518922,,,,,,,,,,0.00605,0.003575,0.0017875,,,,,,,,,
1736676518932,,,,,,,,,,-0.0248875,0.002475,0.012375,,,,,,,,,
1736676518942,,,,,,,,,,-0.052525,0.002475,0.0229625,,,,,,,,,
1736676518951,,,,,,,,,,-0.0748,0.0078375,0.0198,,,,,,,,,
1736676518961,,,,,,,,,,-0.0886875,0.0174625,0.00275,,,,,,,,,
1736676518972,,,,,,,,,,-0.0875875,0.0226875,-0.011,,,,,,,,,
1736676518981,,,,,,,,,,-0.069575,0.014162499,-0.020624999,,,,,,,,,
1736676518992,,,,,,,,,,-0.0419375,0.0132,-0.018424999,,,,,,,,,
1736676519002,,,,,,,,,,-0.0163625,0.018424999,-0.0143,,,,,,,,,
1736676519011,,,,,,,,,,0.00605,0.011,-0.0121,,,,,,,,,
1736676519021,,,,,,,,,,0.0198,-0.00495,-0.011,,,,,,,,,
1736676519031,,,,,,,,,,0.0209,-0.011275,-0.003575,,,,,,,,,
1736676519041,,,,,,,,,,0.014575,0.0067375,0.00495,,,,,,,,,
1736676519052,,,,,,,,,,0.00605,0.0386375,0.013475,,,,,,,,,
1736676519062,,,,,,,,,,0.00385,0.0631125,0.0240625,,,,,,,,,
1736676519073,,,,,,,,,,0.0070125,0.0727375,0.0240625,,,,,,,,,
1736676519083,,,,,,,,,,0.0166375,0.05995,0.011275,,,,,,,,,
1736676519092,,,,,,,,,,0.028324999,0.0408375,-0.0067375,,,,,,,,,
1736676519102,,,,,,,,,,0.0262625,0.02695,-0.021724999,,,,,,,,,
1736676519113,,,,,,,,,,0.00605,0.0099,-0.0248875,,,,,,,,,
1736676519123,,,,,,,,,,-0.015262499,-0.0017875,-0.0174625,,,,,,,,,
1736676519132,,,,,,,,,,-0.0334125,0.0067375,-0.0100375,,,,,,,,,
1736676519142,,,,,,,,,,-0.0451,0.02695,-0.003575,,,,,,,,,
1736676519152,,,,,,,,,,-0.0419375,0.0419375,-0.003575,,,,,,,,,
1736676519162,,,,,,,,,,-0.0237875,0.0408375,-0.005775,,,,,,,,,
1736676519172,,,,,,,,,,0.00495,0.0312125,-0.003575,,,,,,,,,
1736676519182,,,,,,,,,,0.0336875,0.020624999,-0.002475,,,,,,,,,
1736676519193,,,,,,,,,,0.0539,0.019524999,-0.0067375,,,,,,,,,
1736676519203,,,,,,,,,,0.0581625,0.02805,-0.0143,,,,,,,,,
1736676519213,,,,,,,,,,0.0485375,0.0334125,-0.021724999,,,,,,,,,
1736676519223,,,,,,,,,,0.0336875,0.02915,-0.0248875,,,,,,,,,
1736676519233,,,,,,,,,,0.0166375,0.0248875,-0.020624999,,,,,,,,,
1736676519243,,,,,,,,,,-0.001375,0.0237875,-0.0100375,,,,,,,,,
1736676519253,,,,,,,,,,-0.0132,0.0334125,-4.125E-4,,,,,,,,,
1736676519263,,,,,,,,,,-0.014162499,0.0419375,0.00605,,,,,,,,,
1736676519272,,,,,,,,,,-0.0089375,0.0312125,0.0017875,,,,,,,,,
1736676519283,,,,,,,,,,-0.003575,0.0099,-0.003575,,,,,,,,,
1736676519293,,,,,,,,,,-0.002475,-0.011275,-0.0078375,,,,,,,,,
1736676519303,,,,,,,,,,-0.0067375,-0.0188375,-0.0100375,,,,,,,,,
1736676519313,,,,,,,,,,-0.0163625,-0.0166375,-0.011,,,,,,,,,
1736676519323,,,,,,,,,,-0.02915,-0.0092124995,-0.0132,,,,,,,,,
1736676519333,,,,,,,,,,-0.037675,-0.0028875,-0.0174625,,,,,,,,,
1736676519343,,,,,,,,,,-0.0397375,0.001375,-0.020624999,,,,,,,,,
1736676519353,,,,,,,,,,-0.0386375,0.002475,-0.02805,,,,,,,,,
1736676519363,,,,,,,,,,-0.0323125,-0.00495,-0.02915,,,,,,,,,
1736676519374,,,,,,,,,,-0.015262499,-0.013475,-0.0248875,,,,,,,,,
1736676519384,,,,,,,,,,0.00385,-0.0262625,-0.0163625,,,,,,,,,
1736676519393,,,,,,,,,,0.013475,-0.03575,-0.005775,,,,,,,,,
1736676519403,,,,,,,,,,0.0166375,-0.0336875,0.00275,,,,,,,,,
1736676519413,,,,,,,,,,0.013475,-0.0251625,0.0092124995,,,,,,,,,
1736676519423,,,,,,,,,,0.0081124995,-0.00495,0.013475,,,,,,,,,
1736676519433,,,,,,,,,,0.0028875,0.020624999,0.013475,,,,,,,,,
1736676519443,,,,,,,,,,0.0017875,0.034375,0.012375,,,,,,,,,
1736676519454,,,,,,,,,,6.875E-4,0.0408375,0.0092124995,,,,,,,,,
1736676519464,,,,,,,,,,-0.003575,0.0408375,-4.125E-4,,,,,,,,,
1736676519473,,,,,,,,,,-0.0078375,0.0301125,-0.0132,,,,,,,,,
1736676519483,,,,,,,,,,-0.011,0.002475,-0.019524999,,,,,,,,,
1736676519493,,,,,,,,,,-0.018424999,-0.030524999,-0.021724999,,,,,,,,,
1736676519503,,,,,,,,,,-0.02805,-0.0539,-0.018424999,,,,,,,,,
1736676519514,,,,,,,,,,-0.0386375,-0.055,-0.0121,,,,,,,,,
1736676519524,,,,,,,,,,-0.0462,-0.0347875,-4.125E-4,,,,,,,,,
1736676519534,,,,,,,,,,-0.052525,-0.0070125,0.012375,,,,,,,,,
1736676519544,,,,,,,,,,-0.052525,0.0121,0.0187,,,,,,,,,
1736676519555,,,,,,,,,,-0.0462,0.018424999,0.0198,,,,,,,,,
1736676519565,,,,,,,,,,-0.0386375,0.0215875,0.0177375,,,,,,,,,
1736676519575,,,,,,,,,,-0.0237875,0.02585,0.0144375,,,,,,,,,
1736676519585,,,,,,,,,,-0.0067375,0.0301125,0.011275,,,,,,,,,
1736676519594,,,,,,,,,,0.0017875,0.02695,0.00605,,,,,,,,,
1736676519604,,,,,,,,,,0.00385,0.015262499,-0.003575,,,,,,,,,
1736676519614,,,,,,,,,,0.0028875,-0.0070125,-0.0143,,,,,,,,,
1736676519624,,,,,,,,,,-0.0099,-0.0273625,-0.018424999,,,,,,,,,
1736676519634,,,,,,,,,,-0.02695,-0.028324999,-0.0132,,,,,,,,,
1736676519644,,,,,,,,,,-0.044,-0.012375,-0.003575,,,,,,,,,
1736676519654,,,,,,,,,,-0.0567875,0.0099,0.00275,,,,,,,,,
1736676519665,,,,,,,,,,-0.0556875,0.0226875,0.0092124995,,,,,,,,,
1736676519674,,,,,,,,,,-0.0429,0.0121,0.0155375,,,,,,,,,
1736676519684,,,,,,,,,,-0.02915,-0.0017875,0.0262625,,,,,,,,,
1736676519694,,,,,,,,,,-0.019524999,-0.00605,0.029424999,,,,,,,,,
1736676519704,,,,,,,,,,-0.0132,-0.00385,0.0198,,,,,,,,,
1736676519715,,,,,,,,,,-0.011,-0.00495,0.00495,,,,,,,,,
1736676519725,,,,,,,,,,-0.0089375,-0.00605,-0.0078375,,,,,,,,,
1736676519734,,,,,,,,,,-0.004675,-0.0081124995,-0.0132,,,,,,,,,
1736676519746,,,,,,,,,,-0.0067375,-0.012375,-0.0121,,,,,,,,,
1736676519755,,,,,,,,,,-0.014162499,-0.013475,-0.004675,,,,,,,,,
1736676519765,,,,,,,,,,-0.02695,-0.014575,0.00605,,,,,,,,,
1736676519776,,,,,,,,,,-0.0429,-0.0251625,0.013475,,,,,,,,,
1736676519785,,,,,,,,,,-0.0567875,-0.03795,0.0166375,,,,,,,,,
1736676519795,,,,,,,,,,-0.068475,-0.0518375,0.0187,,,,,,,,,
1736676519805,,,,,,,,,,-0.0727375,-0.0570625,0.0177375,,,,,,,,,
1736676519815,,,,,,,,,,-0.078099996,-0.0400125,0.012375,,,,,,,,,
1736676519825,,,,,,,,,,-0.078099996,0.001375,0.0092124995,,,,,,,,,
1736676519835,,,,,,,,,,-0.0664125,0.0429,0.00605,,,,,,,,,
1736676519845,,,,,,,,,,-0.0493625,0.0567875,0.00385,,,,,,,,,
1736676519855,,,,,,,,,,-0.036575,0.0451,6.875E-4,,,,,,,,,
1736676519865,,,,,,,,,,-0.0301125,0.0248875,-0.0015125,,,,,,,,,
1736676519875,,,,,,,,,,-0.034375,0.0056375,0.00275,,,,,,,,,
1736676519885,,,,,,,,,,-0.0462,4.125E-4,0.0070125,,,,,,,,,
1736676519895,,,,,,,,,,-0.0567875,0.0078375,0.00605,,,,,,,,,
1736676519905,,,,,,,,,,-0.06215,0.0132,6.875E-4,,,,,,,,,
1736676519915,,,,,,,,,,-0.0545875,0.015262499,-0.003575,,,,,,,,,
1736676519925,,,,,,,,,,-0.035475,0.018424999,-0.003575,,,,,,,,,
1736676519935,,,,,,,,,,-0.0099,0.0301125,0.0017875,,,,,,,,,
1736676519945,,,,,,,,,,0.0155375,0.035475,0.00385,,,,,,,,,
1736676519955,,,,,,,,,,0.0325875,0.0334125,6.875E-4,,,,,,,,,
1736676519965,,,,,,,,,,0.03795,0.0334125,-0.002475,,,,,,,,,
1736676519977,,,,,,,,,,0.0314875,0.036575,-0.0015125,,,,,,,,,
1736676519987,,,,,,,,,,0.0177375,0.0386375,-0.003575,,,,,,,,,
1736676519996,,,,,,,,,,-0.003575,0.0323125,-0.004675,,,,,,,,,
1736676520006,,,,,,,,,,-0.018424999,0.0215875,-0.004675,,,,,,,,,
1736676520016,,,,,,,,,,-0.02805,0.0078375,-0.002475,,,,,,,,,
1736676520026,,,,,,,,,,-0.0312125,0.002475,-0.002475,,,,,,,,,
1736676520036,,,,,,,,,,-0.02915,0.004675,-0.004675,,,,,,,,,
1736676520046,,,,,,,,,,-0.0226875,0.0089375,-0.0089375,,,,,,,,,
1736676520056,,,,,,,,,,-0.0089375,0.0099,-0.011,,,,,,,,,
1736676520066,,,,,,,,,,0.00495,0.002475,-0.0089375,,,,,,,,,
1736676520077,,,,,,,,,,0.012375,-0.00715,-0.004675,,,,,,,,,
1736676520087,,,,,,,,,,0.0188375,-0.00715,-0.0015125,,,,,,,,,
1736676520096,,,,,,,,,,0.022,-6.875E-4,6.875E-4,,,,,,,,,
1736676520106,,,,,,,,,,0.022,-6.875E-4,-0.0015125,,,,,,,,,
1736676520117,,,,,,,,,,0.0209,0.001375,-0.011,,,,,,,,,
1736676520127,,,,,,,,,,0.0155375,0.019524999,-0.020624999,,,,,,,,,
1736676520136,,,,,,,,,,0.0081124995,0.035475,-0.0226875,,,,,,,,,
1736676520146,,,,,,,,,,-4.125E-4,0.0237875,-0.0174625,,,,,,,,,
1736676520156,,,,,,,,,,-0.0163625,0.0099,-0.0078375,,,,,,,,,
1736676520166,,,,,,,,,,-0.0397375,0.0078375,6.875E-4,,,,,,,,,
1736676520176,,,,,,,,,,-0.061049998,0.0067375,0.00605,,,,,,,,,
1736676520186,,,,,,,,,,-0.069575,0.001375,0.0070125,,,,,,,,,
1736676520196,,,,,,,,,,-0.05995,-0.00495,0.0059125,,,,,,,,,
1736676520207,,,,,,,,,,-0.0419375,-0.0166375,6.875E-4,,,,,,,,,
1736676520217,,,,,,,,,,-0.02585,-0.0240625,-0.0121,,,,,,,,,
1736676520227,,,,,,,,,,-0.019524999,-0.0155375,-0.02805,,,,,,,,,
1736676520237,,,,,,,,,,-0.0226875,4.125E-4,-0.0397375,,,,,,,,,
1736676520247,,,,,,,,,,-0.02915,0.0067375,-0.0462,,,,,,,,,
1736676520257,,,,,,,,,,-0.02695,-0.00385,-0.044,,,,,,,,,
1736676520267,,,,,,,,,,-0.011,-0.0347875,-0.0397375,,,,,,,,,
1736676520277,,,,,,,,,,0.0092124995,-0.0507375,-0.03025,,,,,,,,,
1736676520287,,,,,,,,,,0.0188375,-0.029424999,-0.0259875,,,,,,,,,
1736676520297,,,,,,,,,,0.011275,0.002475,-0.02805,,,,,,,,,
1736676520307,,,,,,,,,,0.00495,-0.00385,-0.02915,,,,,,,,,
1736676520317,,,,,,,,,,0.00605,-0.03575,-0.02915,,,,,,,,,
1736676520327,,,,,,,,,,0.00495,-0.0539,-0.0334125,,,,,,,,,
1736676520337,,,,,,,,,,-0.001375,-0.0496375,-0.0408375,,,,,,,,,
1736676520347,,,,,,,,,,-0.011,-0.03575,-0.0323125,,,,,,,,,
1736676520357,,,,,,,,,,-0.019524999,-0.0166375,-0.0163625,,,,,,,,,
1736676520368,,,,,,,,,,-0.0301125,4.125E-4,-0.003575,,,,,,,,,
1736676520377,,,,,,,,,,-0.0397375,0.0132,0.011275,,,,,,,,,
1736676520388,,,,,,,,,,-0.0493625,0.0215875,0.0262625,,,,,,,,,
1736676520397,,,,,,,,,,-0.0545875,0.017324999,0.0314875,,,,,,,,,
1736676520407,,,,,,,,,,-0.0567875,0.002475,0.029424999,,,,,,,,,
1736676520417,,,,,,,,,,-0.06215,-0.00605,0.0155375,,,,,,,,,
1736676520427,,,,,,,,,,-0.068475,-0.00605,-0.003575,,,,,,,,,
1736676520439,,,,,,,,,,-0.0738375,-0.0028875,-0.0163625,,,,,,,,,
1736676520449,,,,,,,,,,-0.069575,-0.00605,-0.0185625,,,,,,,,,
1736676520458,,,,,,,,,,-0.0556875,-0.012375,-0.011,,,,,,,,,
1736676520468,,,,,,,,,,-0.036575,-0.013475,0.00385,,,,,,,,,
1736676520479,,,,,,,,,,-0.0163625,-0.0028875,0.0187,,,,,,,,,
1736676520489,,,,,,,,,,0.0028875,0.014162499,0.030524999,,,,,,,,,
1736676520498,,,,,,,,,,0.0188375,0.0237875,0.043175,,,,,,,,,
1736676520508,,,,,,,,,,0.0231,0.034375,0.0496375,,,,,,,,,
1736676520518,,,,,,,,,,0.013475,0.051425,0.0496375,,,,,,,,,
1736676520528,,,,,,,,,,-0.002475,0.053625,0.0422125,,,,,,,,,
1736676520538,,,,,,,,,,-0.018424999,0.0312125,0.0336875,,,,,,,,,
1736676520548,,,,,,,,,,-0.035475,-0.0017875,0.0251625,,,,,,,,,
1736676520558,,,,,,,,,,-0.0471625,-0.028324999,0.0198,,,,,,,,,
1736676520568,,,,,,,,,,-0.0545875,-0.0400125,0.0144375,,,,,,,,,
1736676520578,,,,,,,,,,-0.0556875,-0.036849998,0.013475,,,,,,,,,
1736676520588,,,,,,,,,,-0.0482625,-0.0188375,0.0177375,,,,,,,,,
1736676520598,,,,,,,,,,-0.036575,0.011,0.0240625,,,,,,,,,
1736676520608,,,,,,,,,,-0.0215875,0.036575,0.029424999,,,,,,,,,
1736676520619,,,,,,,,,,-0.0067375,0.0451,0.0251625,,,,,,,,,
1736676520629,,,,,,,,,,0.00495,0.0323125,0.0155375,,,,,,,,,
1736676520639,,,,,,,,,,0.0070125,0.014162499,-4.125E-4,,,,,,,,,
1736676520649,,,,,,,,,,-0.001375,0.0067375,-0.0121,,,,,,,,,
1736676520658,,,,,,,,,,-0.020624999,0.0132,-0.0143,,,,,,,,,
1736676520669,,,,,,,,,,-0.0429,0.0301125,-0.0078375,,,,,,,,,
1736676520679,,,,,,,,,,-0.070675,0.051425,0.00385,,,,,,,,,
1736676520689,,,,,,,,,,-0.0972125,0.0790625,0.011275,,,,,,,,,
1736676520699,,,,,,,,,,-0.1632125,0.2184875,0.0070125,,,,,,,,,
1736676520709,,,,,,,,,,-0.2600125,0.330275,0.00385,,,,,,,,,
1736676520720,,,,,,,,,,-0.275,0.2270125,-0.0121,,,,,,,,,
1736676520730,,,,,,,,,,-0.230175,0.068475,-0.0248875,,,,,,,,,
1736676520739,,,,,,,,,,-0.150425,-0.0666875,-0.0078375,,,,,,,,,
1736676520749,,,,,,,,,,-0.0419375,-0.1560625,0.0144375,,,,,,,,,
1736676520759,,,,,,,,,,0.0763125,-0.2124375,0.0198,,,,,,,,,
1736676520769,,,,,,,,,,0.175175,-0.2231625,0.0187,,,,,,,,,
1736676520780,,,,,,,,,,0.225225,-0.1879625,0.011275,,,,,,,,,
1736676520790,,,,,,,,,,0.2198625,-0.1007875,-0.02805,,,,,,,,,
1736676520799,,,,,,,,,,0.1549625,0.015262499,-0.06325,,,,,,,,,
1736676520809,,,,,,,,,,0.045375,0.050325,-0.0482625,,,,,,,,,
1736676520819,,,,,,,,,,-0.069575,0.0121,-0.0143,,,,,,,,,
1736676520829,,,,,,,,,,-0.165275,-0.0400125,0.0177375,,,,,,,,,
1736676520840,,,,,,,,,,-0.22275,-0.0815375,0.0303875,,,,,,,,,
1736676520850,,,,,,,,,,-0.2292125,-0.10395,0.0303875,,,,,,,,,
1736676520859,,,,,,,,,,-0.181225,-0.10505,0.0198,,,,,,,,,
1736676520869,,,,,,,,,,-0.0961125,-0.0889625,-0.0015125,,,,,,,,,
1736676520880,,,,,,,,,,0.0081124995,-0.0581625,-0.0259875,,,,,,,,,
1736676520890,,,,,,,,,,0.0996875,-0.0092124995,-0.0408375,,,,,,,,,
1736676520900,,,,,,,,,,0.1486375,0.0460625,-0.044,,,,,,,,,
1736676520911,,,,,,,,,,0.1475375,0.083325,-0.0334125,,,,,,,,,
1736676520920,,,,,,,,,,0.109175,0.083325,-0.019524999,,,,,,,,,
1736676520930,,,,,,,,,,0.055,0.0460625,-0.0100375,,,,,,,,,
1736676520941,,,,,,,,,,-0.002475,-6.875E-4,-0.003575,,,,,,,,,
1736676520951,,,,,,,,,,-0.0578875,-0.0273625,-0.0015125,,,,,,,,,
1736676520960,,,,,,,,,,-0.104637496,-0.028324999,-0.003575,,,,,,,,,
1736676520970,,,,,,,,,,-0.132275,-0.031625,-0.0100375,,,,,,,,,
1736676520981,,,,,,,,,,-0.1408,-0.0358875,-0.0185625,,,,,,,,,
1736676520991,,,,,,,,,,-0.1280125,-0.039049998,-0.02915,,,,,,,,,
1736676521001,,,,,,,,,,-0.104637496,-0.0358875,-0.0334125,,,,,,,,,
1736676521011,,,,,,,,,,-0.068475,-0.029424999,-0.035475,,,,,,,,,
1736676521020,,,,,,,,,,-0.02805,-0.0188375,-0.035475,,,,,,,,,
1736676521030,,,,,,,,,,0.0070125,-0.011275,-0.03025,,,,,,,,,
1736676521041,,,,,,,,,,0.03795,-0.0017875,-0.02695,,,,,,,,,
1736676521051,,,,,,,,,,0.0581625,0.020624999,-0.0248875,,,,,,,,,
1736676521061,,,,,,,,,,0.063525,0.0429,-0.0237875,,,,,,,,,
1736676521071,,,,,,,,,,0.0581625,0.0556875,-0.021724999,,,,,,,,,
1736676521081,,,,,,,,,,0.0411125,0.05995,-0.022824999,,,,,,,,,
1736676521091,,,,,,,,,,0.0188375,0.053625,-0.02915,,,,,,,,,
1736676521100,,,,,,,,,,-0.0056375,0.034375,-0.0397375,,,,,,,,,
1736676521110,,,,,,,,,,-0.02915,0.017324999,-0.0493625,,,,,,,,,
1736676521120,,,,,,,,,,-0.050325,0.014162499,-0.053625,,,,,,,,,
1736676521130,,,,,,,,,,-0.0653125,0.0163625,-0.0556875,,,,,,,,,
1736676521142,,,,,,,,,,-0.0727375,0.0121,-0.054725,,,,,,,,,
1736676521152,,,,,,,,,,-0.069575,-6.875E-4,-0.053625,,,,,,,,,
1736676521162,,,,,,,,,,-0.0545875,-0.0177375,-0.0504625,,,,,,,,,
1736676521171,,,,,,,,,,-0.035475,-0.03795,-0.02915,,,,,,,,,
1736676521181,,,,,,,,,,-0.0099,-0.06875,-0.005775,,,,,,,,,
1736676521191,,,,,,,,,,0.022,-0.078375,0.00165,,,,,,,,,
1736676521201,,,,,,,,,,0.0518375,-0.0655875,-0.004675,,,,,,,,,
1736676521211,,,,,,,,,,0.079475,-0.0400125,-0.0132,,,,,,,,,
1736676521222,,,,,,,,,,0.0974875,-0.0177375,-0.0121,,,,,,,,,
