timestamp,acc_x,acc_y,acc_z,mag_x,mag_y,mag_z,gra_x,gra_y,gra_z,gyr_x,gyr_y,gyr_z,linear_x,linear_y,linear_z,rot_x,rot_y,rot_z,light,pressure,proximity
1736664990604,4.9110003,1.4470501,7.8910503,,,,,,,,,,,,,,,,,,
1736664990615,4.7800503,1.5310501,8.809951,,,,,,,,,,,,,,,,,,
1736664990624,4.464,1.55295,9.71805,,,,,,,,,,,,,,,,,,
1736664990634,4.30095,1.5600001,10.311001,,,,,,,,,,,,,,,,,,
1736664990644,4.3560004,1.6290001,10.410001,,,,,,,,,,,,,,,,,,
1736664990654,4.3699503,1.61205,9.77295,,,,,,,,,,,,,,,,,,
1736664990664,4.08495,1.38495,9.19095,,,,,,,,,,,,,,,,,,
1736664990675,3.58995,1.0020001,9.24405,,,,,,,,,,,,,,,,,,
1736664990685,3.22305,0.62595004,10.10595,,,,,,,,,,,,,,,,,,
1736664990695,2.9839501,0.36,11.04195,,,,,,,,,,,,,,,,,,
1736664990705,2.8519502,0.12105001,12.0070505,,,,,,,,,,,,,,,,,,
1736664990714,2.697,-0.075,12.75405,,,,,,,,,,,,,,,,,,
1736664990724,2.49795,-0.264,13.161,,,,,,,,,,,,,,,,,,
1736664990734,2.2080002,-0.41700003,13.491,,,,,,,,,,,,,,,,,,
1736664990744,1.8370501,-0.56100005,13.663051,,,,,,,,,,,,,,,,,,
1736664990754,1.69305,-0.62505,13.627951,,,,,,,,,,,,,,,,,,
1736664990764,1.7820001,-0.56805,13.48095,,,,,,,,,,,,,,,,,,
1736664990775,1.96395,-0.51000005,13.222951,,,,,,,,,,,,,,,,,,
1736664990785,2.1079502,-0.51495004,12.79695,,,,,,,,,,,,,,,,,,
1736664990796,2.1769502,-0.60795003,12.277051,,,,,,,,,,,,,,,,,,
1736664990805,2.055,-0.74505,11.779051,,,,,,,,,,,,,,,,,,
1736664990815,1.83,-0.795,11.311951,,,,,,,,,,,,,,,,,,
1736664990825,1.6360501,-0.76395005,11.02995,,,,,,,,,,,,,,,,,,
1736664990835,1.4490001,-0.59895,10.786051,,,,,,,,,,,,,,,,,,
1736664990845,1.248,-0.41205,10.453051,,,,,,,,,,,,,,,,,,
1736664990855,1.06095,-0.19395001,10.017,,,,,,,,,,,,,,,,,,
1736664990865,0.91305006,0.025050001,9.568951,,,,,,,,,,,,,,,,,,
1736664990875,0.82395005,0.18105,9.16905,,,,,,,,,,,,,,,,,,
1736664990886,0.855,0.29805002,8.773951,,,,,,,,,,,,,,,,,,
1736664990895,1.0330501,0.41505003,8.442,,,,,,,,,,,,,,,,,,
1736664990905,1.3099501,0.59505004,8.118,,,,,,,,,,,,,,,,,,
1736664990916,1.58595,0.80595005,7.90005,,,,,,,,,,,,,,,,,,
1736664990926,1.9020001,0.99000007,7.8529506,,,,,,,,,,,,,,,,,,
1736664990935,2.148,1.1020501,7.9600506,,,,,,,,,,,,,,,,,,
1736664990946,2.29695,1.0999501,8.14005,,,,,,,,,,,,,,,,,,
1736664990956,2.39505,1.04505,8.470051,,,,,,,,,,,,,,,,,,
1736664990965,2.49105,0.96105003,8.899051,,,,,,,,,,,,,,,,,,
1736664990975,2.46,0.91095006,9.315001,,,,,,,,,,,,,,,,,,
1736664990985,2.4019501,0.82695,9.65505,,,,,,,,,,,,,,,,,,
1736664990995,2.4430501,0.74295,9.924001,,,,,,,,,,,,,,,,,,
1736664991006,2.5789502,0.73605,10.08195,,,,,,,,,,,,,,,,,,
1736664991016,2.634,0.753,10.077001,,,,,,,,,,,,,,,,,,
1736664991027,2.5860002,0.813,9.8539505,,,,,,,,,,,,,,,,,,
1736664991036,2.50305,0.906,9.61695,,,,,,,,,,,,,,,,,,
1736664991047,2.421,1.09305,9.50205,,,,,,,,,,,,,,,,,,
1736664991057,2.3400002,1.2750001,9.415951,,,,,,,,,,,,,,,,,,
1736664991066,2.4120002,1.45905,9.44205,,,,,,,,,,,,,,,,,,
1736664991076,2.5789502,1.725,9.43995,,,,,,,,,,,,,,,,,,
1736664991086,2.637,1.9120501,9.18105,,,,,,,,,,,,,,,,,,
1736664991096,2.5530002,1.9620001,8.755051,,,,,,,,,,,,,,,,,,
1736664991107,2.433,2.01,8.487,,,,,,,,,,,,,,,,,,
1736664991117,2.50305,2.1390002,8.48505,,,,,,,,,,,,,,,,,,
1736664991127,2.838,2.2729502,8.65905,,,,,,,,,,,,,,,,,,
1736664990633,,,,-9.3,-50.343754,-9.3,,,,,,,,,,,,,,,
1736664990660,,,,-51.35625,-46.85625,1.9875001,,,,,,,,,,,,,,,
1736664990680,,,,-51.24375,-46.256252,1.3875,,,,,,,,,,,,,,,
1736664990700,,,,-51.600002,-45.24375,0.35625002,,,,,,,,,,,,,,,
1736664990721,,,,-52.256252,-44.04375,-1.0125,,,,,,,,,,,,,,,
1736664990741,,,,-52.612503,-42.0,-2.5125,,,,,,,,,,,,,,,
1736664990760,,,,-53.4,-40.256252,-3.8437502,,,,,,,,,,,,,,,
1736664990780,,,,-53.7,-38.34375,-4.74375,,,,,,,,,,,,,,,
1736664990801,,,,-54.05625,-36.0,-5.7562504,,,,,,,,,,,,,,,
1736664990821,,,,-54.54375,-34.143753,-6.7125,,,,,,,,,,,,,,,
1736664990841,,,,-54.843754,-32.34375,-7.6125,,,,,,,,,,,,,,,
1736664990861,,,,-55.0125,-30.35625,-8.512501,,,,,,,,,,,,,,,
1736664990880,,,,-54.843754,-28.743752,-9.0,,,,,,,,,,,,,,,
1736664990900,,,,-55.143753,-27.000002,-9.3,,,,,,,,,,,,,,,
1736664990921,,,,-54.956253,-25.087502,-9.3,,,,,,,,,,,,,,,
1736664990941,,,,-54.600002,-23.34375,-9.84375,,,,,,,,,,,,,,,
1736664990960,,,,-54.600002,-21.65625,-10.25625,,,,,,,,,,,,,,,
1736664990980,,,,-54.05625,-20.15625,-11.212501,,,,,,,,,,,,,,,
1736664991000,,,,-52.912502,-18.487501,-12.1125,,,,,,,,,,,,,,,
1736664991020,,,,-51.9,-17.34375,-12.95625,,,,,,,,,,,,,,,
1736664991041,,,,-50.456253,-15.95625,-13.8,,,,,,,,,,,,,,,
1736664991060,,,,-49.312504,-14.587501,-14.75625,,,,,,,,,,,,,,,
1736664991080,,,,-48.656254,-13.500001,-16.0125,,,,,,,,,,,,,,,
1736664991100,,,,-47.756252,-12.243751,-16.44375,,,,,,,,,,,,,,,
1736664991120,,,,-46.85625,-11.2875,-17.1,,,,,,,,,,,,,,,
1736664990624,,,,,,,4.061442,2.07766,8.680842,,,,,,,,,,,,
1736664990635,,,,,,,3.896303,1.984456,8.777937,,,,,,,,,,,,
1736664990645,,,,,,,3.774209,1.910843,8.847473,,,,,,,,,,,,
1736664990654,,,,,,,3.6587,1.850052,8.908829,,,,,,,,,,,,
1736664990664,,,,,,,3.532094,1.780328,8.974002,,,,,,,,,,,,
1736664990674,,,,,,,3.38769,1.661332,9.052258,,,,,,,,,,,,
1736664990684,,,,,,,3.280462,1.55711,9.110176,,,,,,,,,,,,
1736664990694,,,,,,,3.050114,1.355221,9.221945,,,,,,,,,,,,
1736664990704,,,,,,,2.873407,1.177579,9.302832,,,,,,,,,,,,
1736664990714,,,,,,,2.639419,0.957166,9.397042,,,,,,,,,,,,
1736664990725,,,,,,,2.461774,0.771675,9.462086,,,,,,,,,,,,
1736664990734,,,,,,,2.27646,0.589888,9.521345,,,,,,,,,,,,
1736664990744,,,,,,,2.076581,0.425652,9.575599,,,,,,,,,,,,
1736664990755,,,,,,,1.933233,0.304589,9.610134,,,,,,,,,,,,
1736664990765,,,,,,,1.788218,0.208139,9.640737,,,,,,,,,,,,
1736664990775,,,,,,,1.657227,0.139725,9.665381,,,,,,,,,,,,
1736664990785,,,,,,,1.575452,0.101921,9.679577,,,,,,,,,,,,
1736664990795,,,,,,,1.487709,0.087784,9.693662,,,,,,,,,,,,
1736664990805,,,,,,,1.427541,0.069669,9.702903,,,,,,,,,,,,
1736664990816,,,,,,,1.374354,0.078026,9.710543,,,,,,,,,,,,
1736664990826,,,,,,,1.303116,0.081185,9.72034,,,,,,,,,,,,
1736664990835,,,,,,,1.25479,0.092457,9.726574,,,,,,,,,,,,
1736664990845,,,,,,,1.185489,0.136199,9.734721,,,,,,,,,,,,
1736664990856,,,,,,,1.147598,0.166783,9.738758,,,,,,,,,,,,
1736664990865,,,,,,,1.090928,0.245385,9.7436,,,,,,,,,,,,
1736664990875,,,,,,,1.05737,0.297055,9.745871,,,,,,,,,,,,
1736664990885,,,,,,,1.025197,0.386276,9.746203,,,,,,,,,,,,
1736664990895,,,,,,,0.994085,0.451614,9.746641,,,,,,,,,,,,
1736664990905,,,,,,,1.027688,0.550079,9.73811,,,,,,,,,,,,
1736664990915,,,,,,,1.02257,0.616003,9.734723,,,,,,,,,,,,
1736664990925,,,,,,,1.104971,0.731473,9.717735,,,,,,,,,,,,
1736664990935,,,,,,,1.134513,0.813518,9.707845,,,,,,,,,,,,
1736664990945,,,,,,,1.210808,0.909253,9.690175,,,,,,,,,,,,
1736664990955,,,,,,,1.258196,0.995376,9.675725,,,,,,,,,,,,
1736664990965,,,,,,,1.300877,1.045431,9.664843,,,,,,,,,,,,
1736664990976,,,,,,,1.339729,1.099131,9.653577,,,,,,,,,,,,
1736664990986,,,,,,,1.353948,1.113405,9.649929,,,,,,,,,,,,
1736664990996,,,,,,,1.3879,1.131665,9.642919,,,,,,,,,,,,
1736664991007,,,,,,,1.42418,1.124343,9.638397,,,,,,,,,,,,
1736664991017,,,,,,,1.4625,1.117637,9.633335,,,,,,,,,,,,
1736664991026,,,,,,,1.520609,1.117481,9.624259,,,,,,,,,,,,
1736664991036,,,,,,,1.576298,1.110522,9.616033,,,,,,,,,,,,
1736664991046,,,,,,,1.620871,1.136995,9.605483,,,,,,,,,,,,
1736664991056,,,,,,,1.66284,1.142672,9.597618,,,,,,,,,,,,
1736664991067,,,,,,,1.692508,1.19745,9.585753,,,,,,,,,,,,
1736664991076,,,,,,,1.713535,1.231312,9.577729,,,,,,,,,,,,
1736664991087,,,,,,,1.764649,1.319803,9.556637,,,,,,,,,,,,
1736664991096,,,,,,,1.802705,1.376313,9.541557,,,,,,,,,,,,
1736664991106,,,,,,,1.842614,1.463431,9.520982,,,,,,,,,,,,
1736664991116,,,,,,,1.87818,1.522244,9.504855,,,,,,,,,,,,
1736664991126,,,,,,,1.934507,1.593076,9.481987,,,,,,,,,,,,
1736664990634,,,,,,,,,,0.82335,2.162875,2.6038375,,,,,,,,,
1736664990645,,,,,,,,,,0.8892125,2.1234124,2.682625,,,,,,,,,
1736664990655,,,,,,,,,,0.902,2.0607126,2.75825,,,,,,,,,
1736664990664,,,,,,,,,,0.7849875,2.0681374,2.8252125,,,,,,,,,
1736664990674,,,,,,,,,,0.5456,2.145825,2.896575,,,,,,,,,
1736664990684,,,,,,,,,,0.256025,2.2490876,2.9678,,,,,,,,,
1736664990694,,,,,,,,,,-0.0089375,2.291575,3.0050626,,,,,,,,,
1736664990705,,,,,,,,,,-0.2303125,2.2374,2.9987376,,,,,,,,,
1736664990714,,,,,,,,,,-0.3718,2.0383,2.9381,,,,,,,,,
1736664990724,,,,,,,,,,-0.4175875,1.7881875,2.8252125,,,,,,,,,
1736664990735,,,,,,,,,,-0.381425,1.5530624,2.6783624,,,,,,,,,
1736664990744,,,,,,,,,,-0.2728,1.3327875,2.5400374,,,,,,,,,
1736664990754,,,,,,,,,,-0.1079375,1.1358875,2.4506624,,,,,,,,,
1736664990765,,,,,,,,,,0.0858,0.9794125,2.405975,,,,,,,,,
1736664990775,,,,,,,,,,0.2869625,0.87615,2.3942876,,,,,,,,,
1736664990786,,,,,,,,,,0.4827625,0.8262375,2.4091375,,,,,,,,,
1736664990796,,,,,,,,,,0.6551875,0.81455,2.421925,,,,,,,,,
1736664990805,,,,,,,,,,0.797775,0.8325625,2.3995125,,,,,,,,,
1736664990815,,,,,,,,,,0.913825,0.835725,2.3485,,,,,,,,,
1736664990826,,,,,,,,,,1.0052625,0.820875,2.2771375,,,,,,,,,
1736664990836,,,,,,,,,,1.075525,0.7665625,2.1888626,,,,,,,,,
1736664990845,,,,,,,,,,1.124475,0.6612375,2.10485,,,,,,,,,
1736664990855,,,,,,,,,,1.15005,0.5399625,2.045175,,,,,,,,,
1736664990866,,,,,,,,,,1.15005,0.43559998,2.0164375,,,,,,,,,
1736664990875,,,,,,,,,,1.1276375,0.35694999,2.0207,,,,,,,,,
1736664990885,,,,,,,,,,1.093675,0.313225,2.046275,,,,,,,,,
1736664990896,,,,,,,,,,1.0456874,0.2833875,2.0739124,,,,,,,,,
1736664990905,,,,,,,,,,1.0032,0.2759625,2.093025,,,,,,,,,
1736664990916,,,,,,,,,,0.9574125,0.329175,2.1058125,,,,,,,,,
1736664990925,,,,,,,,,,0.912725,0.445225,2.1143374,,,,,,,,,
1736664990935,,,,,,,,,,0.8732625,0.5995,2.1217625,,,,,,,,,
1736664990945,,,,,,,,,,0.8424625,0.7613375,2.1335876,,,,,,,,,
1736664990956,,,,,,,,,,0.8116625,0.9134125,2.1410124,,,,,,,,,
1736664990965,,,,,,,,,,0.779625,1.016675,2.1388125,,,,,,,,,
1736664990975,,,,,,,,,,0.7423625,1.048575,2.126025,,,,,,,,,
1736664990985,,,,,,,,,,0.697675,1.00705,2.10265,,,,,,,,,
1736664990995,,,,,,,,,,0.652025,0.91135,2.0728126,,,,,,,,,
1736664991007,,,,,,,,,,0.6136625,0.786775,2.014375,,,,,,,,,
1736664991016,,,,,,,,,,0.59125,0.6441875,1.931325,,,,,,,,,
1736664991027,,,,,,,,,,0.583825,0.524975,1.8397499,,,,,,,,,
1736664991036,,,,,,,,,,0.5775,0.479325,1.752575,,,,,,,,,
1736664991046,,,,,,,,,,0.56787497,0.48565,1.6908375,,,,,,,,,
1736664991056,,,,,,,,,,0.56045,0.5154875,1.6578375,,,,,,,,,
1736664991066,,,,,,,,,,0.55935,0.5665,1.6429875,,,,,,,,,
1736664991076,,,,,,,,,,0.5625125,0.5814875,1.638725,,,,,,,,,
1736664991086,,,,,,,,,,0.56155,0.55165,1.637625,,,,,,,,,
1736664991097,,,,,,,,,,0.535975,0.54945,1.653575,,,,,,,,,
1736664991106,,,,,,,,,,0.4785,0.6026625,1.6982625,,,,,,,,,
1736664991116,,,,,,,,,,0.39765,0.6760875,1.7716875,,,,,,,,,
1736664991126,,,,,,,,,,0.31033748,0.7112875,1.8579,,,,,,,,,
1736664990634,,,,,,,,,,,,,0.567716,-0.431386,0.940223,,,,,,
1736664990645,,,,,,,,,,,,,0.596433,-0.297916,0.925755,,,,,,
1736664990655,,,,,,,,,,,,,0.697576,-0.220365,1.50128,,,,,,
1736664990664,,,,,,,,,,,,,0.058011,-0.777944,0.270089,,,,,,
1736664990674,,,,,,,,,,,,,0.698032,-0.275862,0.139159,,,,,,
1736664990684,,,,,,,,,,,,,-0.296112,-1.196396,1.932025,,,,,,
1736664990694,,,,,,,,,,,,,0.173664,-0.72874,0.88409,,,,,,
1736664990704,,,,,,,,,,,,,-0.176371,-1.252624,3.451284,,,,,,
1736664990714,,,,,,,,,,,,,0.213245,-0.83588,2.610057,,,,,,
1736664990724,,,,,,,,,,,,,0.036535,-1.035869,3.699059,,,,,,
1736664990734,,,,,,,,,,,,,-0.438973,-1.150974,4.1426,,,,,,
1736664990744,,,,,,,,,,,,,0.132019,-0.843081,3.915958,,,,,,
1736664990755,,,,,,,,,,,,,-0.150815,-0.872858,3.871845,,,,,,
1736664990764,,,,,,,,,,,,,-0.094389,-0.83387,3.987295,,,,,,
1736664990775,,,,,,,,,,,,,0.450813,-0.655319,3.131832,,,,,,
1736664990785,,,,,,,,,,,,,0.388931,-0.612727,3.543819,,,,,,
1736664990795,,,,,,,,,,,,,0.567657,-0.83323,2.085979,,,,,,
1736664990806,,,,,,,,,,,,,0.749934,-0.678641,2.574751,,,,,,
1736664990815,,,,,,,,,,,,,0.262012,-0.842626,1.319686,,,,,,
1736664990825,,,,,,,,,,,,,0.527187,-0.876911,1.592415,,,,,,
1736664990835,,,,,,,,,,,,,-0.006297,-0.505097,0.726632,,,,,,
1736664990846,,,,,,,,,,,,,0.264123,-0.735593,1.051291,,,,,,
1736664990855,,,,,,,,,,,,,-0.234306,-0.141269,-0.169043,,,,,,
1736664990865,,,,,,,,,,,,,-0.02919,-0.440145,0.273846,,,,,,
1736664990875,,,,,,,,,,,,,-0.201541,0.001407,-0.971059,,,,,,
1736664990886,,,,,,,,,,,,,-0.200493,-0.205133,-0.576334,,,,,,
1736664990895,,,,,,,,,,,,,0.316657,0.14374,-1.627864,,,,,,
1736664990905,,,,,,,,,,,,,0.005317,-0.134296,-1.296104,,,,,,
1736664990915,,,,,,,,,,,,,0.879562,0.374409,-1.881712,,,,,,
1736664990925,,,,,,,,,,,,,0.481114,0.074578,-1.816839,,,,,,
1736664990935,,,,,,,,,,,,,1.162677,0.28703,-1.567519,,,,,,
1736664990945,,,,,,,,,,,,,0.937936,0.19369,-1.729422,,,,,,
1736664990955,,,,,,,,,,,,,1.23293,-0.033695,-0.776411,,,,,,
1736664990966,,,,,,,,,,,,,1.094478,4.9E-5,-1.194106,,,,,,
1736664990975,,,,,,,,,,,,,1.062809,-0.27153,0.002331,,,,,,
1736664990985,,,,,,,,,,,,,1.106053,-0.202004,-0.334009,,,,,,
1736664990996,,,,,,,,,,,,,1.191815,-0.395048,0.439173,,,,,,
1736664991006,,,,,,,,,,,,,1.019061,-0.380542,0.285672,,,,,,
1736664991016,,,,,,,,,,,,,1.124398,-0.304402,0.221299,,,,,,
1736664991026,,,,,,,,,,,,,1.114175,-0.364103,0.453044,,,,,,
1736664991036,,,,,,,,,,,,,0.845394,-0.017155,-0.113358,,,,,,
1736664991046,,,,,,,,,,,,,0.882227,-0.230383,0.012117,,,,,,
1736664991056,,,,,,,,,,,,,0.749275,0.317019,-0.1548,,,,,,
1736664991067,,,,,,,,,,,,,0.647778,0.077881,-0.169273,,,,,,
1736664991077,,,,,,,,,,,,,0.923643,0.6809,-0.395889,,,,,,
1736664991086,,,,,,,,,,,,,0.815066,0.405654,-0.116213,,,,,,
1736664991096,,,,,,,,,,,,,0.630958,0.634065,-1.05406,,,,,,
1736664991107,,,,,,,,,,,,,0.710764,0.499061,-0.765324,,,,,,
1736664991117,,,,,,,,,,,,,0.960118,0.751506,-0.844969,,,,,,
1736664991126,,,,,,,,,,,,,0.568591,0.546593,-0.996884,,,,,,
1736664990644,,,,,,,,,,,,,,,,-0.151535,-0.179426,-0.9353,,,
1736664990654,,,,,,,,,,,,,,,,-0.14545,-0.175384,-0.935678,,,
1736664990664,,,,,,,,,,,,,,,,-0.139331,-0.169094,-0.932742,,,
1736664990674,,,,,,,,,,,,,,,,-0.134883,-0.164102,-0.93331,,,
1736664990684,,,,,,,,,,,,,,,,-0.126336,-0.152516,-0.930949,,,
1736664990694,,,,,,,,,,,,,,,,-0.119641,-0.141891,-0.927819,,,
1736664990704,,,,,,,,,,,,,,,,-0.11103,-0.127622,-0.925012,,,
1736664990715,,,,,,,,,,,,,,,,-0.104568,-0.114986,-0.921539,,,
1736664990724,,,,,,,,,,,,,,,,-0.09825,-0.101871,-0.917951,,,
1736664990735,,,,,,,,,,,,,,,,-0.091422,-0.088836,-0.914327,,,
1736664990745,,,,,,,,,,,,,,,,-0.086567,-0.07855,-0.910293,,,
1736664990754,,,,,,,,,,,,,,,,-0.081496,-0.069289,-0.906113,,,
1736664990764,,,,,,,,,,,,,,,,-0.076776,-0.061657,-0.901655,,,
1736664990776,,,,,,,,,,,,,,,,-0.073773,-0.056634,-0.896772,,,
1736664990786,,,,,,,,,,,,,,,,-0.070129,-0.052754,-0.891653,,,
1736664990795,,,,,,,,,,,,,,,,-0.06784,-0.04955,-0.886191,,,
1736664990806,,,,,,,,,,,,,,,,-0.065125,-0.047776,-0.880597,,,
1736664990815,,,,,,,,,,,,,,,,-0.061656,-0.045393,-0.874991,,,
1736664990825,,,,,,,,,,,,,,,,-0.058767,-0.043916,-0.869357,,,
1736664990836,,,,,,,,,,,,,,,,-0.053943,-0.04328,-0.864986,,,
1736664990845,,,,,,,,,,,,,,,,-0.050682,-0.042971,-0.859529,,,
1736664990856,,,,,,,,,,,,,,,,-0.045384,-0.044389,-0.855561,,,
1736664990865,,,,,,,,,,,,,,,,-0.041808,-0.045445,-0.852157,,,
1736664990875,,,,,,,,,,,,,,,,-0.037349,-0.048257,-0.847879,,,
1736664990885,,,,,,,,,,,,,,,,-0.033591,-0.050206,-0.844127,,,
1736664990896,,,,,,,,,,,,,,,,-0.031422,-0.05506,-0.839532,,,
1736664990905,,,,,,,,,,,,,,,,-0.028879,-0.057858,-0.835359,,,
1736664990915,,,,,,,,,,,,,,,,-0.028278,-0.064796,-0.830469,,,
1736664990925,,,,,,,,,,,,,,,,-0.026713,-0.069231,-0.826099,,,
1736664990935,,,,,,,,,,,,,,,,-0.026343,-0.075226,-0.820964,,,
1736664990946,,,,,,,,,,,,,,,,-0.024996,-0.080119,-0.816304,,,
1736664990955,,,,,,,,,,,,,,,,-0.024291,-0.08335,-0.811033,,,
1736664990965,,,,,,,,,,,,,,,,-0.022963,-0.086466,-0.806227,,,
1736664990975,,,,,,,,,,,,,,,,-0.021701,-0.087351,-0.80096,,,
1736664990985,,,,,,,,,,,,,,,,-0.020835,-0.088779,-0.796256,,,
1736664990995,,,,,,,,,,,,,,,,-0.020879,-0.089295,-0.791196,,,
1736664991006,,,,,,,,,,,,,,,,-0.021076,-0.089865,-0.786785,,,
1736664991016,,,,,,,,,,,,,,,,-0.021989,-0.091292,-0.782156,,,
1736664991026,,,,,,,,,,,,,,,,-0.023376,-0.092687,-0.778225,,,
1736664991037,,,,,,,,,,,,,,,,-0.0235,-0.095221,-0.774242,,,
1736664991046,,,,,,,,,,,,,,,,-0.024271,-0.097002,-0.770794,,,
1736664991056,,,,,,,,,,,,,,,,-0.023087,-0.100282,-0.767105,,,
1736664991066,,,,,,,,,,,,,,,,-0.022132,-0.102462,-0.763827,,,
1736664991076,,,,,,,,,,,,,,,,-0.020185,-0.107338,-0.760059,,,
1736664991086,,,,,,,,,,,,,,,,-0.018825,-0.11094,-0.75662,,,
1736664991096,,,,,,,,,,,,,,,,-0.016528,-0.116006,-0.752666,,,
1736664991106,,,,,,,,,,,,,,,,-0.014872,-0.120065,-0.748917,,,
1736664991116,,,,,,,,,,,,,,,,-0.01321,-0.125056,-0.744469,,,
1736664991126,,,,,,,,,,,,,,,,-0.011323,-0.12838,-0.740192,,,
1736664990702,,,,,,,,,,,,,,,,,,,513.0,,
1736664990823,,,,,,,,,,,,,,,,,,,341.0,,
1736664991023,,,,,,,,,,,,,,,,,,,360.0,,
1736664990702,,,,,,,,,,,,,,,,,,,,,5.0
1736664990702,,,,,,,,,,,,,,,,,,,,,5.0
1736664991136,3.2740502,2.29005,8.85795,,,,,,,,,,,,,,,,,,
1736664991146,3.7450502,2.1679502,8.889001,,,,,,,,,,,,,,,,,,
1736664991156,4.19805,1.9879501,8.700001,,,,,,,,,,,,,,,,,,
1736664991166,4.5430503,1.86405,8.427,,,,,,,,,,,,,,,,,,
1736664991176,4.76805,1.7490001,8.17605,,,,,,,,,,,,,,,,,,
1736664991187,4.87095,1.6000501,7.9360504,,,,,,,,,,,,,,,,,,
1736664991196,4.9900503,1.45395,7.8600006,,,,,,,,,,,,,,,,,,
1736664991207,5.06895,1.38705,7.9530005,,,,,,,,,,,,,,,,,,
1736664991216,5.1120005,1.39005,8.20395,,,,,,,,,,,,,,,,,,
1736664991227,5.10795,1.45395,8.470051,,,,,,,,,,,,,,,,,,
1736664991237,5.0790005,1.50495,8.71695,,,,,,,,,,,,,,,,,,
1736664991247,5.03595,1.55505,8.88405,,,,,,,,,,,,,,,,,,
1736664991258,4.98495,1.5670501,9.02805,,,,,,,,,,,,,,,,,,
1736664991267,4.89195,1.6030501,9.02805,,,,,,,,,,,,,,,,,,
1736664991278,4.7320504,1.6560001,8.892,,,,,,,,,,,,,,,,,,
1736664991287,4.533,1.66005,8.79105,,,,,,,,,,,,,,,,,,
1736664991297,4.3050003,1.6030501,8.785951,,,,,,,,,,,,,,,,,,
1736664991307,4.1950502,1.5330001,8.887051,,,,,,,,,,,,,,,,,,
1736664991317,4.1740503,1.43805,9.114,,,,,,,,,,,,,,,,,,
1736664991327,4.1860504,1.3230001,9.339001,,,,,,,,,,,,,,,,,,
1736664991337,4.25805,1.2919501,9.552,,,,,,,,,,,,,,,,,,
1736664991347,4.28595,1.3060501,9.744,,,,,,,,,,,,,,,,,,
1736664991357,4.32,1.3560001,9.871051,,,,,,,,,,,,,,,,,,
1736664991368,4.3369503,1.5139501,9.873,,,,,,,,,,,,,,,,,,
1736664991377,4.2649503,1.6459501,9.801001,,,,,,,,,,,,,,,,,,
1736664991387,4.06395,1.7869501,9.71805,,,,,,,,,,,,,,,,,,
1736664991398,3.798,1.9260001,9.670051,,,,,,,,,,,,,,,,,,
1736664991407,3.6330001,2.043,9.588,,,,,,,,,,,,,,,,,,
1736664991417,3.5490003,2.1030002,9.406051,,,,,,,,,,,,,,,,,,
1736664991427,3.5269501,2.1660001,9.17895,,,,,,,,,,,,,,,,,,
1736664991437,3.5299501,2.2399502,8.974951,,,,,,,,,,,,,,,,,,
1736664991448,3.5659502,2.35695,8.797951,,,,,,,,,,,,,,,,,,
1736664991458,3.5730002,2.5440001,8.635051,,,,,,,,,,,,,,,,,,
1736664991468,3.55605,2.6590502,8.443951,,,,,,,,,,,,,,,,,,
1736664991479,3.4960501,2.74005,8.158951,,,,,,,,,,,,,,,,,,
1736664991488,3.5440502,2.80995,7.83795,,,,,,,,,,,,,,,,,,
1736664991498,3.6400502,2.87205,7.5319505,,,,,,,,,,,,,,,,,,
1736664991508,3.6709502,2.7930002,7.4140506,,,,,,,,,,,,,,,,,,
1736664991518,3.6349502,2.70405,7.4119506,,,,,,,,,,,,,,,,,,
1736664991528,3.58995,2.568,7.69395,,,,,,,,,,,,,,,,,,
1736664991538,3.5269501,2.4550502,8.23095,,,,,,,,,,,,,,,,,,
1736664991548,3.5419502,2.39505,8.71905,,,,,,,,,,,,,,,,,,
1736664991558,3.5299501,2.30205,9.12405,,,,,,,,,,,,,,,,,,
1736664991569,3.55605,2.18895,9.378,,,,,,,,,,,,,,,,,,
1736664991578,3.5850003,2.15805,9.529051,,,,,,,,,,,,,,,,,,
1736664991588,3.6370502,2.14395,9.517051,,,,,,,,,,,,,,,,,,
1736664991598,3.66405,2.154,9.45705,,,,,,,,,,,,,,,,,,
1736664991608,3.6829503,2.259,9.37005,,,,,,,,,,,,,,,,,,
1736664991618,3.69,2.367,9.262951,,,,,,,,,,,,,,,,,,
1736664991628,3.59205,2.42205,9.28695,,,,,,,,,,,,,,,,,,
1736664991638,3.4840503,2.4379501,9.44205,,,,,,,,,,,,,,,,,,
1736664991648,3.4099503,2.49105,9.670051,,,,,,,,,,,,,,,,,,
1736664991659,3.4099503,2.53905,9.76095,,,,,,,,,,,,,,,,,,
1736664991669,3.39105,2.5729501,9.675,,,,,,,,,,,,,,,,,,
1736664991678,3.3409503,2.6779501,9.5119505,,,,,,,,,,,,,,,,,,
1736664991689,3.108,2.7640502,9.27495,,,,,,,,,,,,,,,,,,
1736664991699,2.73195,2.70705,9.031051,,,,,,,,,,,,,,,,,,
1736664991709,2.4,2.69895,8.986951,,,,,,,,,,,,,,,,,,
1736664991719,2.21295,2.7210002,9.14505,,,,,,,,,,,,,,,,,,
1736664991730,2.19105,2.6779501,9.402,,,,,,,,,,,,,,,,,,
1736664991740,2.26605,2.6179502,9.627001,,,,,,,,,,,,,,,,,,
1736664991750,2.3370001,2.53395,9.78195,,,,,,,,,,,,,,,,,,
1736664991759,2.39505,2.43105,9.78705,,,,,,,,,,,,,,,,,,
1736664991770,2.493,2.43105,9.79695,,,,,,,,,,,,,,,,,,
1736664991779,2.5410001,2.50305,9.648001,,,,,,,,,,,,,,,,,,
1736664991789,2.49495,2.53905,9.351001,,,,,,,,,,,,,,,,,,
1736664991799,2.42805,2.601,9.01605,,,,,,,,,,,,,,,,,,
1736664991809,2.36595,2.6520002,8.755051,,,,,,,,,,,,,,,,,,
1736664991819,2.3830502,2.7259502,8.592,,,,,,,,,,,,,,,,,,
1736664991829,2.421,2.7949502,8.427,,,,,,,,,,,,,,,,,,
1736664991839,2.421,2.7880502,8.158951,,,,,,,,,,,,,,,,,,
1736664991849,2.43105,2.7859502,7.93905,,,,,,,,,,,,,,,,,,
1736664991860,2.46195,2.7829502,7.8240004,,,,,,,,,,,,,,,,,,
1736664991869,2.46705,2.7570002,7.69395,,,,,,,,,,,,,,,,,,
1736664991879,2.4139502,2.6779501,7.6060505,,,,,,,,,,,,,,,,,,
1736664991890,2.256,2.56305,7.5919504,,,,,,,,,,,,,,,,,,
1736664991899,2.13105,2.436,7.5679502,,,,,,,,,,,,,,,,,,
1736664991909,2.08605,2.3760002,7.7470503,,,,,,,,,,,,,,,,,,
1736664991921,2.04495,2.3119502,7.93905,,,,,,,,,,,,,,,,,,
1736664991930,2.02605,2.1990001,8.121,,,,,,,,,,,,,,,,,,
1736664991941,2.09805,2.1100502,8.35305,,,,,,,,,,,,,,,,,,
1736664991950,2.148,2.11305,8.688001,,,,,,,,,,,,,,,,,,
1736664991960,2.05005,2.082,8.901,,,,,,,,,,,,,,,,,,
1736664991970,1.9930501,2.05995,9.093,,,,,,,,,,,,,,,,,,
1736664991980,1.9810501,2.11995,9.208051,,,,,,,,,,,,,,,,,,
1736664991990,2.02905,2.1660001,9.253051,,,,,,,,,,,,,,,,,,
1736664992000,2.079,2.223,9.253051,,,,,,,,,,,,,,,,,,
1736664992011,2.0740502,2.25195,9.174001,,,,,,,,,,,,,,,,,,
1736664992020,2.05995,2.3040001,9.247951,,,,,,,,,,,,,,,,,,
1736664992030,2.0410502,2.4049501,9.406051,,,,,,,,,,,,,,,,,,
1736664992041,1.983,2.50305,9.6,,,,,,,,,,,,,,,,,,
1736664992051,1.88505,2.59905,9.8539505,,,,,,,,,,,,,,,,,,
1736664992061,1.7869501,2.73105,10.110001,,,,,,,,,,,,,,,,,,
1736664992070,1.6690501,2.90505,10.29705,,,,,,,,,,,,,,,,,,
1736664992080,1.5450001,3.039,10.40505,,,,,,,,,,,,,,,,,,
1736664992090,1.4320501,3.1969502,10.36695,,,,,,,,,,,,,,,,,,
1736664992100,1.43505,3.3340502,10.194,,,,,,,,,,,,,,,,,,
1736664992110,1.437,3.4110003,9.97605,,,,,,,,,,,,,,,,,,
1736664992120,1.45605,3.4660501,9.81795,,,,,,,,,,,,,,,,,,
1736664992130,1.50705,3.4800003,9.78195,,,,,,,,,,,,,,,,,,
1736664992142,1.53495,3.3769503,9.715051,,,,,,,,,,,,,,,,,,
1736664992151,1.53495,3.1420503,9.639001,,,,,,,,,,,,,,,,,,
1736664992161,1.5109501,2.8570502,9.66495,,,,,,,,,,,,,,,,,,
1736664992172,1.4320501,2.56095,9.76095,,,,,,,,,,,,,,,,,,
1736664992181,1.332,2.21595,9.948001,,,,,,,,,,,,,,,,,,
1736664992192,1.3080001,1.9260001,10.180051,,,,,,,,,,,,,,,,,,
1736664992202,1.3609501,1.7200501,10.338,,,,,,,,,,,,,,,,,,
1736664992212,1.485,1.61205,10.354951,,,,,,,,,,,,,,,,,,
1736664992221,1.6380001,1.7299501,10.29705,,,,,,,,,,,,,,,,,,
1736664992231,1.7170501,1.9789501,10.021951,,,,,,,,,,,,,,,,,,
1736664992242,1.6690501,2.2090502,9.658051,,,,,,,,,,,,,,,,,,
1736664992251,1.5690001,2.46495,9.4810505,,,,,,,,,,,,,,,,,,
1736664992262,1.5259501,2.733,9.42105,,,,,,,,,,,,,,,,,,
1736664992271,1.6189501,2.9650502,9.394051,,,,,,,,,,,,,,,,,,
1736664992281,1.77495,3.07095,9.27705,,,,,,,,,,,,,,,,,,
1736664992291,1.88505,3.0559502,9.0709505,,,,,,,,,,,,,,,,,,
1736664992301,1.9279501,2.9629502,8.868,,,,,,,,,,,,,,,,,,
1736664992312,1.9969501,2.87205,8.6310005,,,,,,,,,,,,,,,,,,
1736664992321,2.1079502,2.74305,8.463,,,,,,,,,,,,,,,,,,
1736664992331,2.1360002,2.592,8.37195,,,,,,,,,,,,,,,,,,
1736664992342,2.151,2.4049501,8.272051,,,,,,,,,,,,,,,,,,
1736664992352,2.12895,2.19705,8.31,,,,,,,,,,,,,,,,,,
1736664992361,2.08605,2.02905,8.418,,,,,,,,,,,,,,,,,,
1736664992372,1.9570501,1.8690001,8.51805,,,,,,,,,,,,,,,,,,
1736664992382,1.8610501,1.8019501,8.647051,,,,,,,,,,,,,,,,,,
1736664992392,1.8060001,1.8570001,8.82495,,,,,,,,,,,,,,,,,,
1736664992402,1.7410501,2.02395,8.98005,,,,,,,,,,,,,,,,,,
1736664992413,1.60695,2.18895,9.054001,,,,,,,,,,,,,,,,,,
1736664992422,1.5450001,2.46,9.19095,,,,,,,,,,,,,,,,,,
1736664992432,1.4989501,2.76195,9.29895,,,,,,,,,,,,,,,,,,
1736664992443,1.5090001,3.0990002,9.43305,,,,,,,,,,,,,,,,,,
1736664992453,1.5280501,3.3649502,9.52095,,,,,,,,,,,,,,,,,,
1736664992462,1.5090001,3.5110502,9.531,,,,,,,,,,,,,,,,,,
1736664992473,1.50405,3.55695,9.483001,,,,,,,,,,,,,,,,,,
1736664992482,1.557,3.55905,9.459001,,,,,,,,,,,,,,,,,,
1736664992492,1.5660001,3.492,9.318001,,,,,,,,,,,,,,,,,,
1736664992502,1.57605,3.2569501,9.021001,,,,,,,,,,,,,,,,,,
1736664992512,1.59,3.015,8.75805,,,,,,,,,,,,,,,,,,
1736664992522,1.6650001,2.80995,8.587951,,,,,,,,,,,,,,,,,,
1736664992532,1.8079501,2.6560502,8.523001,,,,,,,,,,,,,,,,,,
1736664992542,1.9470001,2.5890002,8.499001,,,,,,,,,,,,,,,,,,
1736664992552,2.0380502,2.53905,8.51295,,,,,,,,,,,,,,,,,,
1736664992563,2.04495,2.46195,8.535001,,,,,,,,,,,,,,,,,,
1736664992573,2.05005,2.42595,8.57295,,,,,,,,,,,,,,,,,,
1736664992583,1.983,2.403,8.722051,,,,,,,,,,,,,,,,,,
1736664992592,1.84395,2.388,8.93505,,,,,,,,,,,,,,,,,,
1736664992604,1.7719501,2.4120002,9.16695,,,,,,,,,,,,,,,,,,
1736664992613,1.746,2.4499502,9.3490505,,,,,,,,,,,,,,,,,,
1736664992623,1.7170501,2.46495,9.50205,,,,,,,,,,,,,,,,,,
1736664992633,1.677,2.45805,9.580951,,,,,,,,,,,,,,,,,,
1736664992644,1.6099501,2.46,9.603001,,,,,,,,,,,,,,,,,,
1736664992654,1.59,2.4720001,9.639001,,,,,,,,,,,,,,,,,,
1736664992663,1.57095,2.4480002,9.67695,,,,,,,,,,,,,,,,,,
1736664992673,1.5450001,2.43105,9.636001,,,,,,,,,,,,,,,,,,
1736664992683,1.5520501,2.505,9.550051,,,,,,,,,,,,,,,,,,
1736664992693,1.554,2.62995,9.375,,,,,,,,,,,,,,,,,,
1736664992704,1.4629501,2.7160501,9.19095,,,,,,,,,,,,,,,,,,
1736664992713,1.28205,2.7900002,9.081,,,,,,,,,,,,,,,,,,
1736664992723,1.18305,2.9200501,8.986951,,,,,,,,,,,,,,,,,,
1736664992734,1.23405,3.04695,8.917951,,,,,,,,,,,,,,,,,,
1736664992744,1.3290001,3.13995,8.79105,,,,,,,,,,,,,,,,,,
1736664992754,1.368,3.1639502,8.628,,,,,,,,,,,,,,,,,,
1736664992764,1.45905,3.2640002,8.48205,,,,,,,,,,,,,,,,,,
1736664992773,1.5499501,3.3100502,8.3550005,,,,,,,,,,,,,,,,,,
1736664992784,1.54005,3.2260501,8.272051,,,,,,,,,,,,,,,,,,
1736664992793,1.47105,3.1039503,8.41005,,,,,,,,,,,,,,,,,,
1736664992804,1.4610001,2.8549502,8.781,,,,,,,,,,,,,,,,,,
1736664992814,1.61205,2.6440501,9.14295,,,,,,,,,,,,,,,,,,
1736664992824,1.9450501,2.4739501,9.363001,,,,,,,,,,,,,,,,,,
1736664992834,2.2440002,2.28795,9.44505,,,,,,,,,,,,,,,,,,
1736664992844,2.424,2.1679502,9.43305,,,,,,,,,,,,,,,,,,
1736664992855,2.4880502,2.0650501,9.351001,,,,,,,,,,,,,,,,,,
1736664992864,2.493,1.9930501,9.271951,,,,,,,,,,,,,,,,,,
1736664992874,2.3449502,1.9600501,9.351001,,,,,,,,,,,,,,,,,,
1736664992884,2.127,1.914,9.48795,,,,,,,,,,,,,,,,,,
1736664992895,2.01195,1.86405,9.579,,,,,,,,,,,,,,,,,,
1736664992905,2.043,1.8349501,9.62205,,,,,,,,,,,,,,,,,,
1736664992914,2.1460502,1.8090001,9.540001,,,,,,,,,,,,,,,,,,
1736664992924,2.2099502,1.7730001,9.423,,,,,,,,,,,,,,,,,,
1736664992934,2.18895,1.7659501,9.32295,,,,,,,,,,,,,,,,,,
1736664992944,2.06205,1.7659501,9.28005,,,,,,,,,,,,,,,,,,
1736664992955,1.8900001,1.8210001,9.354,,,,,,,,,,,,,,,,,,
1736664992965,1.6789501,1.9210501,9.48495,,,,,,,,,,,,,,,,,,
1736664992974,1.4629501,2.02395,9.603001,,,,,,,,,,,,,,,,,,
1736664992984,1.2529501,2.118,9.670051,,,,,,,,,,,,,,,,,,
1736664992994,1.11405,2.2350001,9.694051,,,,,,,,,,,,,,,,,,
1736664993004,1.00905,2.3740501,9.67905,,,,,,,,,,,,,,,,,,
1736664993015,0.91005003,2.48895,9.687,,,,,,,,,,,,,,,,,,
1736664993024,0.82695,2.6179502,9.703051,,,,,,,,,,,,,,,,,,
1736664993034,0.74505,2.6899502,9.724951,,,,,,,,,,,,,,,,,,
1736664993045,0.642,2.6950502,9.75405,,,,,,,,,,,,,,,,,,
1736664993055,0.573,2.66595,9.76305,,,,,,,,,,,,,,,,,,
1736664993066,0.53895,2.592,9.76605,,,,,,,,,,,,,,,,,,
1736664993076,0.53205,2.46,9.74205,,,,,,,,,,,,,,,,,,
1736664993085,0.54195005,2.3740501,9.780001,,,,,,,,,,,,,,,,,,
1736664993095,0.54195005,2.3400002,10.009951,,,,,,,,,,,,,,,,,,
1736664993106,0.55395,2.3400002,10.243951,,,,,,,,,,,,,,,,,,
1736664993116,0.549,2.3119502,10.395,,,,,,,,,,,,,,,,,,
1736664993125,0.549,2.29695,10.43595,,,,,,,,,,,,,,,,,,
1736664993135,0.58500004,2.3430002,10.28505,,,,,,,,,,,,,,,,,,
1736664993145,0.63705003,2.3449502,9.933001,,,,,,,,,,,,,,,,,,
1736664993155,0.70905006,2.388,9.604951,,,,,,,,,,,,,,,,,,
1736664993165,0.76695,2.45805,9.385051,,,,,,,,,,,,,,,,,,
1736664993175,0.77895004,2.50305,9.259951,,,,,,,,,,,,,,,,,,
1736664993185,0.76695,2.5530002,9.220051,,,,,,,,,,,,,,,,,,
1736664993195,0.786,2.5770001,9.262951,,,,,,,,,,,,,,,,,,
1736664993206,0.82695,2.5800002,9.36795,,,,,,,,,,,,,,,,,,
1736664993215,0.87900007,2.50095,9.46395,,,,,,,,,,,,,,,,,,
1736664993225,0.9889501,2.3760002,9.564,,,,,,,,,,,,,,,,,,
1736664993236,1.2070501,2.2710001,9.64305,,,,,,,,,,,,,,,,,,
1736664993245,1.45605,2.1730502,9.682051,,,,,,,,,,,,,,,,,,
1736664993255,1.605,2.0700002,9.67905,,,,,,,,,,,,,,,,,,
1736664993266,1.6330501,1.9740001,9.688951,,,,,,,,,,,,,,,,,,
1736664993275,1.64295,1.90005,9.76605,,,,,,,,,,,,,,,,,,
1736664993286,1.6690501,1.8730501,9.813001,,,,,,,,,,,,,,,,,,
1736664993297,1.64505,1.8330001,9.825001,,,,,,,,,,,,,,,,,,
1736664993306,1.6309501,1.7680501,9.832951,,,,,,,,,,,,,,,,,,
1736664993316,1.6789501,1.7629501,9.78195,,,,,,,,,,,,,,,,,,
1736664993326,1.7320501,1.77495,9.66705,,,,,,,,,,,,,,,,,,
1736664993337,1.7509501,1.8210001,9.568951,,,,,,,,,,,,,,,,,,
1736664993346,1.79595,1.881,9.415951,,,,,,,,,,,,,,,,,,
1736664993356,1.7680501,1.93095,9.23595,,,,,,,,,,,,,,,,,,
1736664993367,1.6860001,1.9570501,9.114,,,,,,,,,,,,,,,,,,
1736664993376,1.53495,2.019,9.14505,,,,,,,,,,,,,,,,,,
1736664993386,1.3560001,2.11995,9.306001,,,,,,,,,,,,,,,,,,
1736664993397,1.2070501,2.19405,9.526051,,,,,,,,,,,,,,,,,,
1736664993406,1.0680001,2.21805,9.627001,,,,,,,,,,,,,,,,,,
1736664993416,1.011,2.21595,9.64305,,,,,,,,,,,,,,,,,,
1736664993427,1.00395,2.2470002,9.61695,,,,,,,,,,,,,,,,,,
1736664993436,0.9580501,2.30205,9.526051,,,,,,,,,,,,,,,,,,
1736664993446,0.915,2.3809502,9.42105,,,,,,,,,,,,,,,,,,
1736664993456,0.84795004,2.4379501,9.378,,,,,,,,,,,,,,,,,,
1736664993466,0.76695,2.48895,9.397051,,,,,,,,,,,,,,,,,,
1736664993476,0.70905006,2.5170002,9.415951,,,,,,,,,,,,,,,,,,
1736664993486,0.67305005,2.5099502,9.363001,,,,,,,,,,,,,,,,,,
1736664993496,0.70005006,2.47005,9.295951,,,,,,,,,,,,,,,,,,
1736664993506,0.83400005,2.45295,9.2029505,,,,,,,,,,,,,,,,,,
1736664993517,0.98205006,2.42895,9.13095,,,,,,,,,,,,,,,,,,
1736664993528,1.0900501,2.3760002,9.073951,,,,,,,,,,,,,,,,,,
1736664993537,1.2100501,2.28795,9.01605,,,,,,,,,,,,,,,,,,
1736664993547,1.3249501,2.19705,8.98995,,,,,,,,,,,,,,,,,,
1736664993558,1.389,2.09805,9.064051,,,,,,,,,,,,,,,,,,
1736664993567,1.3990501,1.9620001,9.220051,,,,,,,,,,,,,,,,,,
1736664993578,1.389,1.7920501,9.44505,,,,,,,,,,,,,,,,,,
1736664993587,1.3990501,1.5960001,9.700951,,,,,,,,,,,,,,,,,,
1736664993597,1.4059501,1.4449501,9.98595,,,,,,,,,,,,,,,,,,
1736664993607,1.3579501,1.3420501,10.2949505,,,,,,,,,,,,,,,,,,
1736664993617,1.24605,1.2580501,10.49295,,,,,,,,,,,,,,,,,,
1736664993627,1.07295,1.2580501,10.659,,,,,,,,,,,,,,,,,,
1736664993637,0.89595,1.35405,10.684951,,,,,,,,,,,,,,,,,,
1736664993648,0.78105,1.5810001,10.563001,,,,,,,,,,,,,,,,,,
1736664993657,0.69495004,1.8829501,10.342951,,,,,,,,,,,,,,,,,,
1736664993667,0.573,2.21295,10.054951,,,,,,,,,,,,,,,,,,
1736664993677,0.393,2.4769502,9.74205,,,,,,,,,,,,,,,,,,
1736664993687,0.28095,2.637,9.426001,,,,,,,,,,,,,,,,,,
1736664993698,0.22605,2.7930002,9.177,,,,,,,,,,,,,,,,,,
1736664993707,0.23505001,2.9479501,9.019051,,,,,,,,,,,,,,,,,,
1736664993718,0.30495003,3.0229502,8.887051,,,,,,,,,,,,,,,,,,
1736664993727,0.38805002,3.0199502,8.77005,,,,,,,,,,,,,,,,,,
1736664993738,0.45495003,2.9479501,8.6640005,,,,,,,,,,,,,,,,,,
1736664993749,0.537,2.81205,8.608951,,,,,,,,,,,,,,,,,,
1736664993758,0.61800003,2.64,8.652,,,,,,,,,,,,,,,,,,
1736664993769,0.75195,2.4720001,8.86095,,,,,,,,,,,,,,,,,,
1736664993778,0.95295006,2.30205,9.184051,,,,,,,,,,,,,,,,,,
1736664993788,1.1020501,2.1030002,9.50895,,,,,,,,,,,,,,,,,,
1736664993798,1.19295,1.9399501,9.832951,,,,,,,,,,,,,,,,,,
1736664993809,1.2100501,1.77495,10.048051,,,,,,,,,,,,,,,,,,
1736664993818,1.212,1.65795,10.10595,,,,,,,,,,,,,,,,,,
1736664993828,1.22895,1.62705,10.101001,,,,,,,,,,,,,,,,,,
1736664993838,1.2720001,1.641,10.009951,,,,,,,,,,,,,,,,,,
1736664993848,1.332,1.6390501,9.93795,,,,,,,,,,,,,,,,,,
1736664993858,1.401,1.67505,9.892051,,,,,,,,,,,,,,,,,,
1736664993869,1.4419501,1.70595,9.81105,,,,,,,,,,,,,,,,,,
1736664993878,1.3750501,1.7560501,9.658051,,,,,,,,,,,,,,,,,,
1736664993888,1.2580501,1.8229501,9.47295,,,,,,,,,,,,,,,,,,
1736664993898,1.16205,1.96395,9.35595,,,,,,,,,,,,,,,,,,
1736664993909,1.1040001,2.07495,9.28905,,,,,,,,,,,,,,,,,,
1736664993918,1.0159501,2.12205,9.27,,,,,,,,,,,,,,,,,,
1736664993928,0.94905007,2.1769502,9.330001,,,,,,,,,,,,,,,,,,
1736664993938,0.93195003,2.21595,9.394051,,,,,,,,,,,,,,,,,,
1736664993949,0.93000007,2.2350001,9.49695,,,,,,,,,,,,,,,,,,
1736664993958,0.94905007,2.2399502,9.591001,,,,,,,,,,,,,,,,,,
1736664993969,0.94605005,2.2399502,9.67905,,,,,,,,,,,,,,,,,,
1736664993979,0.89100003,2.223,9.727051,,,,,,,,,,,,,,,,,,
1736664993989,0.82695,2.2039502,9.721951,,,,,,,,,,,,,,,,,,
1736664993999,0.78405005,2.22795,9.682051,,,,,,,,,,,,,,,,,,
1736664994010,0.78405005,2.2450502,9.64095,,,,,,,,,,,,,,,,,,
1736664994019,0.762,2.2350001,9.59595,,,,,,,,,,,,,,,,,,
1736664994029,0.81000006,2.2369502,9.627001,,,,,,,,,,,,,,,,,,
1736664994039,0.906,2.23005,9.660001,,,,,,,,,,,,,,,,,,
1736664994049,0.99195004,2.187,9.604951,,,,,,,,,,,,,,,,,,
1736664994059,1.03995,2.118,9.507001,,,,,,,,,,,,,,,,,,
1736664994069,1.107,2.1660001,9.394051,,,,,,,,,,,,,,,,,,
1736664994079,1.179,2.22795,9.294001,,,,,,,,,,,,,,,,,,
1736664994089,1.2070501,2.28495,9.217051,,,,,,,,,,,,,,,,,,
1736664994099,1.27005,2.283,9.14505,,,,,,,,,,,,,,,,,,
1736664994110,1.3270501,2.25195,9.10005,,,,,,,,,,,,,,,,,,
1736664994119,1.3440001,2.2060502,9.081,,,,,,,,,,,,,,,,,,
1736664994130,1.3630501,2.11995,9.14295,,,,,,,,,,,,,,,,,,
1736664991141,,,,-45.65625,-10.5,-17.212502,,,,,,,,,,,,,,,
1736664991160,,,,-44.2125,-9.84375,-17.8125,,,,,,,,,,,,,,,
1736664991181,,,,-43.143753,-9.243751,-18.84375,,,,,,,,,,,,,,,
1736664991200,,,,-42.112503,-8.45625,-19.2,,,,,,,,,,,,,,,
1736664991221,,,,-40.800003,-7.6875005,-19.85625,,,,,,,,,,,,,,,
1736664991241,,,,-39.7125,-6.95625,-19.743752,,,,,,,,,,,,,,,
1736664991260,,,,-39.05625,-6.5437503,-19.800001,,,,,,,,,,,,,,,
1736664991280,,,,-38.04375,-6.1875005,-19.800001,,,,,,,,,,,,,,,
1736664991300,,,,-37.612503,-5.7562504,-19.9125,,,,,,,,,,,,,,,
1736664991321,,,,-37.443752,-5.64375,-19.9125,,,,,,,,,,,,,,,
1736664991341,,,,-36.65625,-5.5875,-20.212502,,,,,,,,,,,,,,,
1736664991360,,,,-36.600002,-5.5875,-20.643751,,,,,,,,,,,,,,,
1736664991380,,,,-36.35625,-5.7562504,-21.0,,,,,,,,,,,,,,,
1736664991400,,,,-36.35625,-5.9437504,-21.35625,,,,,,,,,,,,,,,
1736664991420,,,,-36.412502,-5.8875003,-21.300001,,,,,,,,,,,,,,,
1736664991441,,,,-35.8125,-5.5875,-21.54375,,,,,,,,,,,,,,,
1736664991460,,,,-35.2125,-5.5875,-21.056252,,,,,,,,,,,,,,,
1736664991481,,,,-35.04375,-5.45625,-21.300001,,,,,,,,,,,,,,,
1736664991501,,,,-34.912502,-5.5875,-21.54375,,,,,,,,,,,,,,,
1736664991521,,,,-34.85625,-6.1875005,-21.65625,,,,,,,,,,,,,,,
1736664991542,,,,-34.612503,-6.24375,-22.143751,,,,,,,,,,,,,,,
1736664991560,,,,-34.143753,-6.3562503,-22.3125,,,,,,,,,,,,,,,
1736664991580,,,,-33.54375,-6.3,-22.44375,,,,,,,,,,,,,,,
1736664991601,,,,-33.24375,-6.0,-22.612501,,,,,,,,,,,,,,,
1736664991622,,,,-33.0,-5.8875003,-22.800001,,,,,,,,,,,,,,,
1736664991640,,,,-32.34375,-5.45625,-23.34375,,,,,,,,,,,,,,,
1736664991661,,,,-31.612501,-5.1000004,-23.7,,,,,,,,,,,,,,,
1736664991680,,,,-31.2,-4.6875,-23.75625,,,,,,,,,,,,,,,
1736664991700,,,,-31.0125,-4.6875,-23.643751,,,,,,,,,,,,,,,
1736664991720,,,,-30.900002,-4.4437504,-23.456251,,,,,,,,,,,,,,,
1736664991740,,,,-30.712502,-4.5,-23.212502,,,,,,,,,,,,,,,
1736664991761,,,,-30.000002,-4.4437504,-23.400002,,,,,,,,,,,,,,,
1736664991781,,,,-29.04375,-3.9,-23.75625,,,,,,,,,,,,,,,
1736664991800,,,,-28.312502,-3.9,-24.0,,,,,,,,,,,,,,,
1736664991820,,,,-28.25625,-3.9,-24.712502,,,,,,,,,,,,,,,
1736664991840,,,,-28.2,-3.9562502,-25.44375,,,,,,,,,,,,,,,
1736664991860,,,,-27.956251,-4.4437504,-25.9125,,,,,,,,,,,,,,,
1736664991880,,,,-27.6,-4.8,-25.85625,,,,,,,,,,,,,,,
1736664991901,,,,-26.812502,-4.74375,-25.556252,,,,,,,,,,,,,,,
1736664991920,,,,-26.343752,-4.74375,-25.556252,,,,,,,,,,,,,,,
1736664991941,,,,-25.85625,-4.5,-25.500002,,,,,,,,,,,,,,,
1736664991961,,,,-25.143751,-3.9562502,-25.9125,,,,,,,,,,,,,,,
1736664991980,,,,-24.300001,-3.8437502,-26.343752,,,,,,,,,,,,,,,
1736664992000,,,,-23.34375,-3.9562502,-26.400002,,,,,,,,,,,,,,,
1736664992021,,,,-22.44375,-3.6000001,-26.212502,,,,,,,,,,,,,,,
1736664992041,,,,-21.956251,-3.6000001,-26.156252,,,,,,,,,,,,,,,
1736664992061,,,,-21.35625,-3.4875002,-26.456251,,,,,,,,,,,,,,,
1736664992080,,,,-20.8125,-3.3000002,-26.5125,,,,,,,,,,,,,,,
1736664992101,,,,-20.212502,-3.24375,-26.812502,,,,,,,,,,,,,,,
1736664992120,,,,-19.743752,-2.6437502,-26.94375,,,,,,,,,,,,,,,
1736664992141,,,,-19.143751,-2.4,-26.75625,,,,,,,,,,,,,,,
1736664992161,,,,-18.6,-1.85625,-26.643751,,,,,,,,,,,,,,,
1736664992180,,,,-18.4125,-1.7437501,-26.812502,,,,,,,,,,,,,,,
1736664992200,,,,-17.8125,-1.7437501,-26.94375,,,,,,,,,,,,,,,
1736664992220,,,,-17.400002,-1.5562501,-27.112501,,,,,,,,,,,,,,,
1736664992241,,,,-17.1,-1.25625,-27.35625,,,,,,,,,,,,,,,
1736664992260,,,,-16.556252,-1.25625,-27.243752,,,,,,,,,,,,,,,
1736664992280,,,,-16.25625,-1.7437501,-27.6,,,,,,,,,,,,,,,
1736664992300,,,,-16.3125,-1.8000001,-27.656252,,,,,,,,,,,,,,,
1736664992320,,,,-16.3125,-2.34375,-27.712502,,,,,,,,,,,,,,,
1736664992341,,,,-16.743752,-2.6437502,-28.143751,,,,,,,,,,,,,,,
1736664992361,,,,-17.1,-2.4562502,-28.2,,,,,,,,,,,,,,,
1736664992380,,,,-16.9125,-3.24375,-28.612501,,,,,,,,,,,,,,,
1736664992401,,,,-17.04375,-3.54375,-29.1,,,,,,,,,,,,,,,
1736664992420,,,,-16.556252,-3.9562502,-29.343752,,,,,,,,,,,,,,,
1736664992441,,,,-16.5,-4.6875,-29.7,,,,,,,,,,,,,,,
1736664992461,,,,-16.612501,-4.55625,-29.7,,,,,,,,,,,,,,,
1736664992480,,,,-16.743752,-4.6875,-29.75625,,,,,,,,,,,,,,,
1736664992501,,,,-17.1,-4.2000003,-29.400002,,,,,,,,,,,,,,,
1736664992520,,,,-16.800001,-3.6562502,-28.85625,,,,,,,,,,,,,,,
1736664992541,,,,-17.1,-3.6000001,-28.612501,,,,,,,,,,,,,,,
1736664992560,,,,-16.9125,-3.6000001,-28.25625,,,,,,,,,,,,,,,
1736664992581,,,,-16.3125,-3.6000001,-28.312502,,,,,,,,,,,,,,,
1736664992601,,,,-16.5,-3.8437502,-28.25625,,,,,,,,,,,,,,,
1736664992620,,,,-16.143751,-3.6000001,-28.2,,,,,,,,,,,,,,,
1736664992641,,,,-15.95625,-3.1875002,-28.143751,,,,,,,,,,,,,,,
1736664992660,,,,-15.843751,-3.05625,-28.44375,,,,,,,,,,,,,,,
1736664992680,,,,-15.900001,-2.9437501,-28.500002,,,,,,,,,,,,,,,
1736664992701,,,,-15.712501,-2.8875,-28.44375,,,,,,,,,,,,,,,
1736664992720,,,,-15.543751,-2.8875,-28.25625,,,,,,,,,,,,,,,
1736664992741,,,,-15.843751,-2.7,-28.143751,,,,,,,,,,,,,,,
1736664992760,,,,-15.543751,-2.5875,-28.556252,,,,,,,,,,,,,,,
1736664992780,,,,-15.3,-2.5875,-28.556252,,,,,,,,,,,,,,,
1736664992801,,,,-15.1125,-2.8875,-28.85625,,,,,,,,,,,,,,,
1736664992821,,,,-15.000001,-2.9437501,-28.85625,,,,,,,,,,,,,,,
1736664992841,,,,-14.343751,-2.9437501,-28.312502,,,,,,,,,,,,,,,
1736664992860,,,,-14.043751,-2.7562501,-28.0125,,,,,,,,,,,,,,,
1736664992880,,,,-13.8,-2.5875,-27.843752,,,,,,,,,,,,,,,
1736664992900,,,,-12.900001,-2.4562502,-27.712502,,,,,,,,,,,,,,,
1736664992920,,,,-12.900001,-2.34375,-27.656252,,,,,,,,,,,,,,,
1736664992941,,,,-12.4125,-2.04375,-27.54375,,,,,,,,,,,,,,,
1736664992960,,,,-12.3,-1.85625,-27.35625,,,,,,,,,,,,,,,
1736664992980,,,,-12.712501,-1.85625,-27.300001,,,,,,,,,,,,,,,
1736664993001,,,,-12.6,-1.8000001,-27.300001,,,,,,,,,,,,,,,
1736664993020,,,,-12.843751,-2.15625,-27.112501,,,,,,,,,,,,,,,
1736664993041,,,,-12.543751,-1.9875001,-27.54375,,,,,,,,,,,,,,,
1736664993060,,,,-12.056251,-1.7437501,-27.35625,,,,,,,,,,,,,,,
1736664993081,,,,-12.1125,-1.7437501,-27.4125,,,,,,,,,,,,,,,
1736664993100,,,,-11.512501,-1.5,-27.900002,,,,,,,,,,,,,,,
1736664993120,,,,-11.400001,-1.5,-27.35625,,,,,,,,,,,,,,,
1736664993142,,,,-11.15625,-1.44375,-27.112501,,,,,,,,,,,,,,,
1736664993160,,,,-10.6125,-1.2,-27.000002,,,,,,,,,,,,,,,
1736664993180,,,,-10.6125,-1.25625,-26.94375,,,,,,,,,,,,,,,
1736664993200,,,,-10.25625,-1.25625,-26.7,,,,,,,,,,,,,,,
1736664993220,,,,-9.900001,-1.25625,-26.643751,,,,,,,,,,,,,,,
1736664993241,,,,-9.65625,-1.44375,-26.456251,,,,,,,,,,,,,,,
1736664993260,,,,-9.543751,-1.2,-26.156252,,,,,,,,,,,,,,,
1736664993281,,,,-9.3,-1.5,-26.7,,,,,,,,,,,,,,,
1736664993301,,,,-9.356251,-1.6875001,-27.000002,,,,,,,,,,,,,,,
1736664993320,,,,-9.4125,-1.85625,-26.94375,,,,,,,,,,,,,,,
1736664993342,,,,-9.3,-1.9875001,-26.94375,,,,,,,,,,,,,,,
1736664993360,,,,-9.543751,-1.6875001,-26.812502,,,,,,,,,,,,,,,
1736664993380,,,,-9.3,-1.6875001,-26.94375,,,,,,,,,,,,,,,
1736664993401,,,,-9.3,-1.5,-27.243752,,,,,,,,,,,,,,,
1736664993420,,,,-9.243751,-1.5,-27.35625,,,,,,,,,,,,,,,
1736664993441,,,,-9.0,-1.3875,-27.6,,,,,,,,,,,,,,,
1736664993461,,,,-9.3,-1.44375,-27.656252,,,,,,,,,,,,,,,
1736664993481,,,,-9.4125,-1.3875,-27.656252,,,,,,,,,,,,,,,
1736664993500,,,,-9.95625,-1.1437501,-27.54375,,,,,,,,,,,,,,,
1736664993520,,,,-10.200001,-1.3875,-26.94375,,,,,,,,,,,,,,,
1736664993542,,,,-10.012501,-1.0875001,-26.5125,,,,,,,,,,,,,,,
1736664993561,,,,-10.012501,-0.90000004,-26.400002,,,,,,,,,,,,,,,
1736664993580,,,,-9.356251,-1.0875001,-26.643751,,,,,,,,,,,,,,,
1736664993600,,,,-9.243751,-0.90000004,-27.000002,,,,,,,,,,,,,,,
1736664993620,,,,-9.543751,-1.2,-27.300001,,,,,,,,,,,,,,,
1736664993641,,,,-9.356251,-1.2,-27.243752,,,,,,,,,,,,,,,
1736664993660,,,,-9.356251,-0.95625,-27.243752,,,,,,,,,,,,,,,
1736664993680,,,,-9.543751,-0.84375006,-27.4125,,,,,,,,,,,,,,,
1736664993700,,,,-9.900001,-0.6,-27.112501,,,,,,,,,,,,,,,
1736664993720,,,,-9.65625,-0.54375005,-27.712502,,,,,,,,,,,,,,,
1736664993741,,,,-10.14375,-0.65625,-27.900002,,,,,,,,,,,,,,,
1736664993760,,,,-10.44375,-0.95625,-27.6,,,,,,,,,,,,,,,
1736664993781,,,,-10.25625,-0.95625,-28.143751,,,,,,,,,,,,,,,
1736664993800,,,,-11.212501,-0.90000004,-27.4125,,,,,,,,,,,,,,,
1736664993820,,,,-11.15625,-0.7875,-27.000002,,,,,,,,,,,,,,,
1736664993841,,,,-11.212501,-0.7875,-26.94375,,,,,,,,,,,,,,,
1736664993860,,,,-11.15625,-0.54375005,-26.343752,,,,,,,,,,,,,,,
1736664993881,,,,-10.856251,-0.65625,-26.400002,,,,,,,,,,,,,,,
1736664993900,,,,-11.043751,-0.90000004,-26.7,,,,,,,,,,,,,,,
1736664993921,,,,-10.8,-0.6,-26.643751,,,,,,,,,,,,,,,
1736664993940,,,,-10.6125,-0.84375006,-27.112501,,,,,,,,,,,,,,,
1736664993960,,,,-10.6125,-0.7875,-27.000002,,,,,,,,,,,,,,,
1736664993981,,,,-10.44375,-0.54375005,-27.000002,,,,,,,,,,,,,,,
1736664994000,,,,-10.6125,-0.65625,-27.056252,,,,,,,,,,,,,,,
1736664994020,,,,-10.556251,-0.7875,-26.812502,,,,,,,,,,,,,,,
1736664994040,,,,-10.44375,-0.95625,-27.056252,,,,,,,,,,,,,,,
1736664994060,,,,-10.856251,-0.90000004,-27.056252,,,,,,,,,,,,,,,
1736664994080,,,,-10.556251,-0.90000004,-26.94375,,,,,,,,,,,,,,,
1736664994101,,,,-10.856251,-0.90000004,-26.7,,,,,,,,,,,,,,,
1736664994120,,,,-10.743751,-0.65625,-26.812502,,,,,,,,,,,,,,,
1736664994140,,,,-10.3125,-0.84375006,-26.7,,,,,,,,,,,,,,,
1736664991136,,,,,,,1.969211,1.642537,9.466426,,,,,,,,,,,,
1736664991147,,,,,,,2.102571,1.669513,9.432957,,,,,,,,,,,,
1736664991156,,,,,,,2.198959,1.709572,9.403721,,,,,,,,,,,,
1736664991167,,,,,,,2.407943,1.706529,9.352907,,,,,,,,,,,,
1736664991177,,,,,,,2.565336,1.71397,9.309569,,,,,,,,,,,,
1736664991186,,,,,,,2.787355,1.690023,9.249901,,,,,,,,,,,,
1736664991197,,,,,,,2.963076,1.677893,9.19731,,,,,,,,,,,,
1736664991206,,,,,,,3.146702,1.628943,9.144934,,,,,,,,,,,,
1736664991217,,,,,,,3.304431,1.591933,9.095624,,,,,,,,,,,,
1736664991227,,,,,,,3.428815,1.548957,9.056846,,,,,,,,,,,,
1736664991237,,,,,,,3.556596,1.508998,9.014113,,,,,,,,,,,,
1736664991247,,,,,,,3.650018,1.483419,8.980848,,,,,,,,,,,,
1736664991258,,,,,,,3.755966,1.462465,8.940409,,,,,,,,,,,,
1736664991267,,,,,,,3.840802,1.455244,8.905402,,,,,,,,,,,,
1736664991277,,,,,,,3.930385,1.45038,8.866985,,,,,,,,,,,,
1736664991287,,,,,,,3.986878,1.463049,8.839624,,,,,,,,,,,,
1736664991297,,,,,,,4.039748,1.471316,8.814211,,,,,,,,,,,,
1736664991307,,,,,,,4.041965,1.468051,8.813754,,,,,,,,,,,,
1736664991318,,,,,,,4.046253,1.467731,8.811852,,,,,,,,,,,,
1736664991328,,,,,,,4.020657,1.432979,8.829269,,,,,,,,,,,,
1736664991338,,,,,,,4.002959,1.41179,8.840694,,,,,,,,,,,,
1736664991347,,,,,,,3.980135,1.374252,8.856858,,,,,,,,,,,,
1736664991358,,,,,,,3.970246,1.34233,8.866139,,,,,,,,,,,,
1736664991367,,,,,,,3.966214,1.330421,8.869692,,,,,,,,,,,,
1736664991378,,,,,,,3.970566,1.310986,8.870605,,,,,,,,,,,,
1736664991388,,,,,,,3.964646,1.334447,8.869739,,,,,,,,,,,,
1736664991397,,,,,,,3.970687,1.348901,8.864842,,,,,,,,,,,,
1736664991407,,,,,,,3.937058,1.406665,8.870867,,,,,,,,,,,,
1736664991417,,,,,,,3.914922,1.456427,8.872648,,,,,,,,,,,,
1736664991427,,,,,,,3.885137,1.538023,8.871994,,,,,,,,,,,,
1736664991437,,,,,,,3.850329,1.611651,8.874125,,,,,,,,,,,,
1736664991447,,,,,,,3.832509,1.716042,8.862282,,,,,,,,,,,,
1736664991458,,,,,,,3.809785,1.803314,8.854766,,,,,,,,,,,,
1736664991468,,,,,,,3.806764,1.928947,8.829563,,,,,,,,,,,,
1736664991478,,,,,,,3.804352,2.028448,8.808284,,,,,,,,,,,,
1736664991488,,,,,,,3.824777,2.155752,8.76911,,,,,,,,,,,,
1736664991498,,,,,,,3.826794,2.252023,8.743994,,,,,,,,,,,,
1736664991508,,,,,,,3.860236,2.352522,8.702726,,,,,,,,,,,,
1736664991518,,,,,,,3.874206,2.43907,8.672637,,,,,,,,,,,,
1736664991528,,,,,,,3.86792,2.478359,8.66431,,,,,,,,,,,,
1736664991539,,,,,,,3.865346,2.523981,8.652295,,,,,,,,,,,,
1736664991548,,,,,,,3.813331,2.504442,8.681016,,,,,,,,,,,,
1736664991559,,,,,,,3.778965,2.497174,8.698128,,,,,,,,,,,,
1736664991568,,,,,,,3.722187,2.447151,8.736732,,,,,,,,,,,,
1736664991579,,,,,,,3.679174,2.416208,8.763505,,,,,,,,,,,,
1736664991588,,,,,,,3.644634,2.373562,8.789533,,,,,,,,,,,,
1736664991599,,,,,,,3.613631,2.34168,8.810841,,,,,,,,,,,,
1736664991608,,,,,,,3.598701,2.326526,8.820948,,,,,,,,,,,,
1736664991619,,,,,,,3.583354,2.305093,8.832807,,,,,,,,,,,,
1736664991628,,,,,,,3.566231,2.308406,8.838861,,,,,,,,,,,,
1736664991639,,,,,,,3.55782,2.304663,8.843227,,,,,,,,,,,,
1736664991648,,,,,,,3.521805,2.304037,8.857788,,,,,,,,,,,,
1736664991658,,,,,,,3.505769,2.304778,8.863946,,,,,,,,,,,,
1736664991668,,,,,,,3.483266,2.318438,8.86925,,,,,,,,,,,,
1736664991678,,,,,,,3.463605,2.335644,8.87244,,,,,,,,,,,,
1736664991690,,,,,,,3.431799,2.38885,8.870651,,,,,,,,,,,,
1736664991699,,,,,,,3.407553,2.430732,8.868648,,,,,,,,,,,,
1736664991709,,,,,,,3.317479,2.488954,8.886659,,,,,,,,,,,,
1736664991720,,,,,,,3.25314,2.534526,8.897587,,,,,,,,,,,,
1736664991729,,,,,,,3.141522,2.563779,8.929281,,,,,,,,,,,,
1736664991739,,,,,,,3.045953,2.592527,8.954067,,,,,,,,,,,,
1736664991749,,,,,,,2.963713,2.585314,8.983695,,,,,,,,,,,,
1736664991760,,,,,,,2.893042,2.58595,9.006501,,,,,,,,,,,,
1736664991769,,,,,,,2.851487,2.567354,9.025029,,,,,,,,,,,,
1736664991780,,,,,,,2.814983,2.554996,9.03996,,,,,,,,,,,,
1736664991790,,,,,,,2.802389,2.56605,9.04073,,,,,,,,,,,,
1736664991800,,,,,,,2.790259,2.573712,9.042305,,,,,,,,,,,,
1736664991810,,,,,,,2.779261,2.618428,9.03286,,,,,,,,,,,,
1736664991820,,,,,,,2.764243,2.653786,9.027167,,,,,,,,,,,,
1736664991830,,,,,,,2.758004,2.72059,9.009192,,,,,,,,,,,,
1736664991840,,,,,,,2.743241,2.774761,8.997193,,,,,,,,,,,,
1736664991849,,,,,,,2.744511,2.84606,8.974523,,,,,,,,,,,,
1736664991859,,,,,,,2.736668,2.903133,8.958631,,,,,,,,,,,,
1736664991869,,,,,,,2.743077,2.960945,8.937726,,,,,,,,,,,,
1736664991879,,,,,,,2.744579,3.006604,8.921998,,,,,,,,,,,,
1736664991889,,,,,,,2.735641,3.02917,8.91709,,,,,,,,,,,,
1736664991900,,,,,,,2.741621,3.048953,8.908492,,,,,,,,,,,,
1736664991910,,,,,,,2.713873,3.027891,8.924153,,,,,,,,,,,,
1736664991920,,,,,,,2.695122,3.007815,8.93662,,,,,,,,,,,,
1736664991930,,,,,,,2.655769,2.944477,8.969437,,,,,,,,,,,,
1736664991940,,,,,,,2.621591,2.891904,8.996558,,,,,,,,,,,,
1736664991950,,,,,,,2.581827,2.803152,9.036057,,,,,,,,,,,,
1736664991960,,,,,,,2.545198,2.725848,9.070018,,,,,,,,,,,,
1736664991970,,,,,,,2.486376,2.636821,9.112535,,,,,,,,,,,,
1736664991980,,,,,,,2.439141,2.561366,9.146744,,,,,,,,,,,,
1736664991991,,,,,,,2.385601,2.495774,9.178922,,,,,,,,,,,,
1736664992001,,,,,,,2.330898,2.43642,9.208863,,,,,,,,,,,,
1736664992010,,,,,,,2.284079,2.395905,9.231193,,,,,,,,,,,,
1736664992021,,,,,,,2.233025,2.356271,9.253862,,,,,,,,,,,,
1736664992031,,,,,,,2.171033,2.333007,9.274497,,,,,,,,,,,,
1736664992040,,,,,,,2.111614,2.307656,9.294547,,,,,,,,,,,,
1736664992050,,,,,,,2.026884,2.299308,9.31546,,,,,,,,,,,,
1736664992060,,,,,,,1.958626,2.292083,9.331823,,,,,,,,,,,,
1736664992071,,,,,,,1.862953,2.307842,9.347501,,,,,,,,,,,,
1736664992080,,,,,,,1.79206,2.317561,9.358927,,,,,,,,,,,,
1736664992090,,,,,,,1.703781,2.361819,9.364322,,,,,,,,,,,,
1736664992100,,,,,,,1.639201,2.394414,9.367553,,,,,,,,,,,,
1736664992110,,,,,,,1.581112,2.464411,9.359375,,,,,,,,,,,,
1736664992120,,,,,,,1.528699,2.519261,9.353476,,,,,,,,,,,,
1736664992130,,,,,,,1.492588,2.589444,9.340135,,,,,,,,,,,,
1736664992141,,,,,,,1.458573,2.650409,9.328402,,,,,,,,,,,,
1736664992151,,,,,,,1.439091,2.683823,9.321871,,,,,,,,,,,,
1736664992162,,,,,,,1.42102,2.726225,9.312337,,,,,,,,,,,,
1736664992171,,,,,,,1.397798,2.699669,9.323586,,,,,,,,,,,,
1736664992181,,,,,,,1.382001,2.697589,9.326546,,,,,,,,,,,,
1736664992191,,,,,,,1.34872,2.615194,9.35484,,,,,,,,,,,,
1736664992201,,,,,,,1.326225,2.567951,9.371121,,,,,,,,,,,,
1736664992211,,,,,,,1.321885,2.477843,9.395945,,,,,,,,,,,,
1736664992221,,,,,,,1.315755,2.411752,9.413973,,,,,,,,,,,,
1736664992231,,,,,,,1.34942,2.383485,9.416408,,,,,,,,,,,,
1736664992241,,,,,,,1.375572,2.342058,9.423021,,,,,,,,,,,,
1736664992251,,,,,,,1.400586,2.378239,9.41027,,,,,,,,,,,,
1736664992261,,,,,,,1.429404,2.387096,9.403691,,,,,,,,,,,,
1736664992271,,,,,,,1.454989,2.458112,9.381444,,,,,,,,,,,,
1736664992281,,,,,,,1.475621,2.503239,9.366282,,,,,,,,,,,,
1736664992291,,,,,,,1.532301,2.576019,9.337406,,,,,,,,,,,,
1736664992301,,,,,,,1.574536,2.63855,9.312891,,,,,,,,,,,,
1736664992311,,,,,,,1.644379,2.694906,9.284641,,,,,,,,,,,,
1736664992322,,,,,,,1.694783,2.746711,9.260365,,,,,,,,,,,,
1736664992332,,,,,,,1.765306,2.772482,9.239482,,,,,,,,,,,,
1736664992341,,,,,,,1.818983,2.802616,9.219954,,,,,,,,,,,,
1736664992351,,,,,,,1.871701,2.781044,9.215927,,,,,,,,,,,,
1736664992361,,,,,,,1.918263,2.774585,9.208289,,,,,,,,,,,,
1736664992373,,,,,,,1.939031,2.711562,9.222695,,,,,,,,,,,,
1736664992382,,,,,,,1.969013,2.665138,9.229869,,,,,,,,,,,,
1736664992392,,,,,,,1.963778,2.598836,9.249867,,,,,,,,,,,,
1736664992402,,,,,,,1.966365,2.536235,9.266679,,,,,,,,,,,,
1736664992412,,,,,,,1.936247,2.507989,9.280699,,,,,,,,,,,,
1736664992422,,,,,,,1.91935,2.472194,9.293804,,,,,,,,,,,,
1736664992432,,,,,,,1.874903,2.498109,9.295949,,,,,,,,,,,,
1736664992442,,,,,,,1.838709,2.504143,9.301555,,,,,,,,,,,,
1736664992452,,,,,,,1.796775,2.57659,9.289957,,,,,,,,,,,,
1736664992462,,,,,,,1.760126,2.628255,9.282497,,,,,,,,,,,,
1736664992472,,,,,,,1.727064,2.710111,9.265154,,,,,,,,,,,,
1736664992482,,,,,,,1.701168,2.780085,9.2492,,,,,,,,,,,,
1736664992493,,,,,,,1.690818,2.84658,9.230857,,,,,,,,,,,,
1736664992503,,,,,,,1.686014,2.905597,9.213334,,,,,,,,,,,,
1736664992512,,,,,,,1.700902,2.931865,9.202272,,,,,,,,,,,,
1736664992522,,,,,,,1.71116,2.96274,9.190477,,,,,,,,,,,,
1736664992532,,,,,,,1.751099,2.949736,9.187139,,,,,,,,,,,,
1736664992543,,,,,,,1.771117,2.946182,9.18444,,,,,,,,,,,,
1736664992553,,,,,,,1.821536,2.91901,9.183248,,,,,,,,,,,,
1736664992562,,,,,,,1.853746,2.898832,9.183189,,,,,,,,,,,,
1736664992572,,,,,,,1.884933,2.864832,9.18751,,,,,,,,,,,,
1736664992582,,,,,,,1.906375,2.838016,9.19141,,,,,,,,,,,,
1736664992593,,,,,,,1.896009,2.799271,9.205425,,,,,,,,,,,,
1736664992603,,,,,,,1.899534,2.768711,9.213936,,,,,,,,,,,,
1736664992613,,,,,,,1.872165,2.732319,9.23039,,,,,,,,,,,,
1736664992624,,,,,,,1.854004,2.699453,9.243712,,,,,,,,,,,,
1736664992633,,,,,,,1.826919,2.665351,9.258986,,,,,,,,,,,,
1736664992643,,,,,,,1.809909,2.635801,9.270777,,,,,,,,,,,,
1736664992653,,,,,,,1.785397,2.606464,9.283814,,,,,,,,,,,,
1736664992663,,,,,,,1.768618,2.579185,9.29464,,,,,,,,,,,,
1736664992673,,,,,,,1.751046,2.552661,9.305284,,,,,,,,,,,,
1736664992684,,,,,,,1.73942,2.530823,9.313424,,,,,,,,,,,,
1736664992693,,,,,,,1.732146,2.534216,9.313855,,,,,,,,,,,,
1736664992703,,,,,,,1.722396,2.526923,9.317644,,,,,,,,,,,,
1736664992713,,,,,,,1.692405,2.556517,9.315066,,,,,,,,,,,,
1736664992724,,,,,,,1.675284,2.576074,9.312776,,,,,,,,,,,,
1736664992733,,,,,,,1.638574,2.629919,9.304256,,,,,,,,,,,,
1736664992743,,,,,,,1.598017,2.668299,9.300386,,,,,,,,,,,,
1736664992753,,,,,,,1.578811,2.732342,9.285066,,,,,,,,,,,,
1736664992763,,,,,,,1.553773,2.782688,9.274338,,,,,,,,,,,,
1736664992774,,,,,,,1.551785,2.850942,9.253925,,,,,,,,,,,,
1736664992783,,,,,,,1.534096,2.900598,9.241449,,,,,,,,,,,,
1736664992793,,,,,,,1.51196,2.927015,9.236792,,,,,,,,,,,,
1736664992803,,,,,,,1.494262,2.957033,9.230139,,,,,,,,,,,,
1736664992813,,,,,,,1.474104,2.907613,9.249084,,,,,,,,,,,,
1736664992825,,,,,,,1.4504,2.88591,9.259624,,,,,,,,,,,,
1736664992834,,,,,,,1.491174,2.802748,9.27866,,,,,,,,,,,,
1736664992844,,,,,,,1.507589,2.745585,9.293066,,,,,,,,,,,,
1736664992854,,,,,,,1.568919,2.662638,9.307019,,,,,,,,,,,,
1736664992865,,,,,,,1.613502,2.596933,9.317945,,,,,,,,,,,,
1736664992874,,,,,,,1.643292,2.524829,9.332542,,,,,,,,,,,,
1736664992884,,,,,,,1.678971,2.46453,9.34231,,,,,,,,,,,,
1736664992894,,,,,,,1.667013,2.395866,9.362288,,,,,,,,,,,,
1736664992904,,,,,,,1.670372,2.337984,9.376307,,,,,,,,,,,,
1736664992914,,,,,,,1.68087,2.274827,9.389944,,,,,,,,,,,,
1736664992925,,,,,,,1.686104,2.217527,9.402694,,,,,,,,,,,,
1736664992935,,,,,,,1.710675,2.162723,9.41101,,,,,,,,,,,,
1736664992945,,,,,,,1.732758,2.109993,9.418934,,,,,,,,,,,,
1736664992954,,,,,,,1.72539,2.066375,9.42995,,,,,,,,,,,,
1736664992964,,,,,,,1.73242,2.022387,9.438195,,,,,,,,,,,,
1736664992975,,,,,,,1.682373,2.000516,9.4519,,,,,,,,,,,,
1736664992984,,,,,,,1.655975,1.974915,9.461939,,,,,,,,,,,,
1736664992994,,,,,,,1.582443,1.976663,9.474147,,,,,,,,,,,,
1736664993005,,,,,,,1.527471,1.97063,9.48442,,,,,,,,,,,,
1736664993014,,,,,,,1.447763,1.99694,9.491414,,,,,,,,,,,,
1736664993024,,,,,,,1.382038,2.0135,9.497712,,,,,,,,,,,,
1736664993034,,,,,,,1.297268,2.054885,9.500807,,,,,,,,,,,,
1736664993044,,,,,,,1.224269,2.088327,9.503208,,,,,,,,,,,,
1736664993055,,,,,,,1.134995,2.122954,9.506619,,,,,,,,,,,,
1736664993065,,,,,,,1.058988,2.157246,9.507676,,,,,,,,,,,,
1736664993075,,,,,,,0.98096,2.170381,9.51306,,,,,,,,,,,,
1736664993086,,,,,,,0.909786,2.190922,9.515429,,,,,,,,,,,,
1736664993095,,,,,,,0.844554,2.183682,9.523106,,,,,,,,,,,,
1736664993105,,,,,,,0.789128,2.18312,9.527982,,,,,,,,,,,,
1736664993115,,,,,,,0.742782,2.167863,9.535177,,,,,,,,,,,,
1736664993125,,,,,,,0.709523,2.161291,9.539194,,,,,,,,,,,,
1736664993135,,,,,,,0.690433,2.159146,9.541074,,,,,,,,,,,,
1736664993145,,,,,,,0.675197,2.156175,9.542831,,,,,,,,,,,,
1736664993156,,,,,,,0.678638,2.179721,9.537237,,,,,,,,,,,,
1736664993165,,,,,,,0.670514,2.194227,9.534488,,,,,,,,,,,,
1736664993175,,,,,,,0.673711,2.234456,9.524918,,,,,,,,,,,,
1736664993186,,,,,,,0.670367,2.263779,9.518234,,,,,,,,,,,,
1736664993195,,,,,,,0.666925,2.300559,9.509659,,,,,,,,,,,,
1736664993205,,,,,,,0.662145,2.329792,9.502877,,,,,,,,,,,,
1736664993216,,,,,,,0.667905,2.342799,9.499277,,,,,,,,,,,,
1736664993226,,,,,,,0.673159,2.359841,9.494688,,,,,,,,,,,,
1736664993235,,,,,,,0.712214,2.342386,9.496161,,,,,,,,,,,,
1736664993245,,,,,,,0.732664,2.336346,9.496091,,,,,,,,,,,,
1736664993256,,,,,,,0.802419,2.304287,9.498281,,,,,,,,,,,,
1736664993265,,,,,,,0.851879,2.285056,9.498614,,,,,,,,,,,,
1736664993275,,,,,,,0.910037,2.24594,9.502544,,,,,,,,,,,,
1736664993286,,,,,,,0.962674,2.218738,9.503744,,,,,,,,,,,,
1736664993296,,,,,,,1.012058,2.182121,9.507086,,,,,,,,,,,,
1736664993306,,,,,,,1.062236,2.15293,9.508261,,,,,,,,,,,,
1736664993316,,,,,,,1.113743,2.118373,9.510127,,,,,,,,,,,,
1736664993327,,,,,,,1.159797,2.087535,9.511439,,,,,,,,,,,,
1736664993336,,,,,,,1.216922,2.068554,9.50845,,,,,,,,,,,,
1736664993347,,,,,,,1.266759,2.04768,9.506459,,,,,,,,,,,,
1736664993357,,,,,,,1.318579,2.050043,9.498901,,,,,,,,,,,,
1736664993366,,,,,,,1.360938,2.045822,9.493836,,,,,,,,,,,,
1736664993376,,,,,,,1.375267,2.058294,9.489075,,,,,,,,,,,,
1736664993386,,,,,,,1.397591,2.062511,9.484899,,,,,,,,,,,,
1736664993396,,,,,,,1.371359,2.077158,9.48553,,,,,,,,,,,,
1736664993407,,,,,,,1.366017,2.085798,9.484405,,,,,,,,,,,,
1736664993416,,,,,,,1.333559,2.094336,9.487142,,,,,,,,,,,,
1736664993426,,,,,,,1.313594,2.101861,9.488263,,,,,,,,,,,,
1736664993437,,,,,,,1.289846,2.117638,9.488018,,,,,,,,,,,,
1736664993446,,,,,,,1.271731,2.126313,9.488523,,,,,,,,,,,,
1736664993456,,,,,,,1.241971,2.155231,9.485939,,,,,,,,,,,,
1736664993466,,,,,,,1.218032,2.176211,9.484252,,,,,,,,,,,,
1736664993476,,,,,,,1.177902,2.206655,9.482285,,,,,,,,,,,,
1736664993487,,,,,,,1.147203,2.231869,9.480146,,,,,,,,,,,,
1736664993496,,,,,,,1.115377,2.255067,9.478453,,,,,,,,,,,,
1736664993507,,,,,,,1.08455,2.277688,9.47662,,,,,,,,,,,,
1736664993517,,,,,,,1.084759,2.295171,9.472377,,,,,,,,,,,,
1736664993527,,,,,,,1.071073,2.310833,9.470125,,,,,,,,,,,,
1736664993538,,,,,,,1.092534,2.313239,9.467086,,,,,,,,,,,,
1736664993547,,,,,,,1.098683,2.320008,9.464718,,,,,,,,,,,,
1736664993557,,,,,,,1.127976,2.299853,9.466191,,,,,,,,,,,,
1736664993568,,,,,,,1.145289,2.288547,9.466855,,,,,,,,,,,,
1736664993577,,,,,,,1.159062,2.233017,9.478435,,,,,,,,,,,,
1736664993588,,,,,,,1.172729,2.197284,9.485105,,,,,,,,,,,,
1736664993597,,,,,,,1.177519,2.109801,9.504357,,,,,,,,,,,,
1736664993608,,,,,,,1.185938,2.045305,9.5174,,,,,,,,,,,,
1736664993618,,,,,,,1.177471,1.953096,9.537799,,,,,,,,,,,,
1736664993628,,,,,,,1.185076,1.881141,9.551314,,,,,,,,,,,,
1736664993638,,,,,,,1.159574,1.81927,9.566422,,,,,,,,,,,,
1736664993647,,,,,,,1.157344,1.762906,9.57725,,,,,,,,,,,,
1736664993658,,,,,,,1.13165,1.770977,9.578844,,,,,,,,,,,,
1736664993668,,,,,,,1.117038,1.758895,9.582794,,,,,,,,,,,,
1736664993678,,,,,,,1.076297,1.836456,9.572903,,,,,,,,,,,,
1736664993688,,,,,,,1.051691,1.883275,9.566535,,,,,,,,,,,,
1736664993697,,,,,,,0.999739,1.991717,9.550117,,,,,,,,,,,,
1736664993708,,,,,,,0.952756,2.070263,9.538198,,,,,,,,,,,,
1736664993717,,,,,,,0.910881,2.184053,9.516877,,,,,,,,,,,,
1736664993727,,,,,,,0.864597,2.273378,9.500251,,,,,,,,,,,,
1736664993739,,,,,,,0.843092,2.358414,9.481433,,,,,,,,,,,,
1736664993748,,,,,,,0.816036,2.431576,9.465302,,,,,,,,,,,,
1736664993759,,,,,,,0.810703,2.461353,9.458061,,,,,,,,,,,,
1736664993768,,,,,,,0.79497,2.497581,9.449901,,,,,,,,,,,,
1736664993778,,,,,,,0.810178,2.468129,9.456351,,,,,,,,,,,,
1736664993789,,,,,,,0.804393,2.461139,9.458672,,,,,,,,,,,,
1736664993799,,,,,,,0.827558,2.392667,9.474228,,,,,,,,,,,,
1736664993808,,,,,,,0.845487,2.3516,9.482916,,,,,,,,,,,,
1736664993818,,,,,,,0.8698,2.273506,9.499741,,,,,,,,,,,,
1736664993829,,,,,,,0.894777,2.216041,9.510992,,,,,,,,,,,,
1736664993838,,,,,,,0.925134,2.157188,9.521611,,,,,,,,,,,,
1736664993848,,,,,,,0.949115,2.103918,9.531166,,,,,,,,,,,,
1736664993859,,,,,,,0.986779,2.063798,9.53611,,,,,,,,,,,,
1736664993868,,,,,,,1.015906,2.02642,9.541068,,,,,,,,,,,,
1736664993878,,,,,,,1.050621,2.00793,9.541218,,,,,,,,,,,,
1736664993889,,,,,,,1.087009,1.986301,9.541672,,,,,,,,,,,,
1736664993898,,,,,,,1.107515,1.981162,9.540381,,,,,,,,,,,,
1736664993908,,,,,,,1.112877,1.999933,9.535839,,,,,,,,,,,,
1736664993918,,,,,,,1.11946,2.005124,9.533977,,,,,,,,,,,,
1736664993928,,,,,,,1.104672,2.026493,9.531183,,,,,,,,,,,,
1736664993938,,,,,,,1.096176,2.040921,9.529085,,,,,,,,,,,,
1736664993948,,,,,,,1.077721,2.057806,9.527557,,,,,,,,,,,,
1736664993959,,,,,,,1.061686,2.072912,9.526082,,,,,,,,,,,,
1736664993969,,,,,,,1.046616,2.083497,9.525442,,,,,,,,,,,,
1736664993979,,,,,,,1.034861,2.095501,9.524092,,,,,,,,,,,,
1736664993990,,,,,,,1.014119,2.102631,9.524752,,,,,,,,,,,,
1736664993999,,,,,,,1.00098,2.111667,9.524142,,,,,,,,,,,,
1736664994009,,,,,,,0.980234,2.124752,9.523391,,,,,,,,,,,,
1736664994020,,,,,,,0.959724,2.135624,9.523047,,,,,,,,,,,,
1736664994030,,,,,,,0.942634,2.147506,9.522083,,,,,,,,,,,,
1736664994039,,,,,,,0.924005,2.159069,9.521295,,,,,,,,,,,,
1736664994049,,,,,,,0.92855,2.165748,9.519334,,,,,,,,,,,,
1736664994059,,,,,,,0.927277,2.174626,9.517436,,,,,,,,,,,,
1736664994070,,,,,,,0.947658,2.181715,9.513804,,,,,,,,,,,,
1736664994080,,,,,,,0.960705,2.181689,9.512502,,,,,,,,,,,,
1736664994089,,,,,,,0.989486,2.199648,9.505412,,,,,,,,,,,,
1736664994099,,,,,,,1.012066,2.208155,9.501061,,,,,,,,,,,,
1736664994109,,,,,,,1.046447,2.219484,9.494696,,,,,,,,,,,,
1736664994120,,,,,,,1.069579,2.229879,9.48968,,,,,,,,,,,,
1736664994129,,,,,,,1.095764,2.223812,9.488116,,,,,,,,,,,,
1736664991136,,,,,,,,,,0.2454375,0.6634375,1.9292625,,,,,,,,,
1736664991146,,,,,,,,,,0.2294875,0.54945,1.9494749,,,,,,,,,
1736664991157,,,,,,,,,,0.2528625,0.43353748,1.9228,,,,,,,,,
1736664991166,,,,,,,,,,0.2880625,0.3515875,1.8781124,,,,,,,,,
1736664991176,,,,,,,,,,0.3135,0.314325,1.833425,,,,,,,,,
1736664991186,,,,,,,,,,0.3262875,0.3282125,1.7887375,,,,,,,,,
1736664991196,,,,,,,,,,0.3188625,0.4037,1.7408875,,,,,,,,,
1736664991207,,,,,,,,,,0.2932875,0.49101248,1.6801125,,,,,,,,,
1736664991216,,,,,,,,,,0.26675,0.54945,1.5972,,,,,,,,,
1736664991228,,,,,,,,,,0.24653749,0.55165,1.4971,,,,,,,,,
1736664991237,,,,,,,,,,0.2358125,0.491975,1.3864125,,,,,,,,,
1736664991248,,,,,,,,,,0.2369125,0.3664375,1.2640375,,,,,,,,,
1736664991258,,,,,,,,,,0.2508,0.2132625,1.132175,,,,,,,,,
1736664991267,,,,,,,,,,0.2762375,0.0556875,1.0076,,,,,,,,,
1736664991277,,,,,,,,,,0.30827498,-0.028324999,0.9086,,,,,,,,,
1736664991287,,,,,,,,,,0.3273875,-0.00385,0.8575875,,,,,,,,,
1736664991297,,,,,,,,,,0.33275,0.09295,0.8479625,,,,,,,,,
1736664991307,,,,,,,,,,0.3146,0.214225,0.86501247,,,,,,,,,
1736664991317,,,,,,,,,,0.2773375,0.312125,0.8883875,,,,,,,,,
1736664991327,,,,,,,,,,0.23265,0.3696,0.8883875,,,,,,,,,
1736664991338,,,,,,,,,,0.192225,0.35901248,0.85965,,,,,,,,,
1736664991347,,,,,,,,,,0.159225,0.3026375,0.802175,,,,,,,,,
1736664991357,,,,,,,,,,0.13585,0.2036375,0.719125,,,,,,,,,
1736664991367,,,,,,,,,,0.1199,0.0759,0.616,,,,,,,,,
1736664991377,,,,,,,,,,0.115637496,-0.03575,0.5138375,,,,,,,,,
1736664991388,,,,,,,,,,0.1304875,-0.096525,0.4296875,,,,,,,,,
1736664991397,,,,,,,,,,0.175175,-0.10395,0.3755125,,,,,,,,,
1736664991408,,,,,,,,,,0.2475,-0.096525,0.3499375,,,,,,,,,
1736664991418,,,,,,,,,,0.337975,-0.0858,0.34141248,,,,,,,,,
1736664991427,,,,,,,,,,0.4316125,-0.0559625,0.34347498,,,,,,,,,
1736664991437,,,,,,,,,,0.518925,-0.0166375,0.3425125,,,,,,,,,
1736664991447,,,,,,,,,,0.59235,0.011,0.3403125,,,,,,,,,
1736664991459,,,,,,,,,,0.6435,0.0067375,0.34347498,,,,,,,,,
1736664991468,,,,,,,,,,0.665775,-0.0231,0.3553,,,,,,,,,
1736664991478,,,,,,,,,,0.65945,-0.062425,0.37867498,,,,,,,,,
1736664991489,,,,,,,,,,0.6296125,-0.0752125,0.41593748,,,,,,,,,
1736664991498,,,,,,,,,,0.5753,-0.0262625,0.4626875,,,,,,,,,
1736664991508,,,,,,,,,,0.500775,0.067375,0.510675,,,,,,,,,
1736664991518,,,,,,,,,,0.4156625,0.1854875,0.5542625,,,,,,,,,
1736664991528,,,,,,,,,,0.320925,0.3399,0.591525,,,,,,,,,
1736664991539,,,,,,,,,,0.23375,0.4569125,0.623425,,,,,,,,,
1736664991549,,,,,,,,,,0.1645875,0.5027,0.655325,,,,,,,,,
1736664991558,,,,,,,,,,0.126225,0.5047625,0.6829625,,,,,,,,,
1736664991569,,,,,,,,,,0.1145375,0.4739625,0.690525,,,,,,,,,
1736664991578,,,,,,,,,,0.126225,0.4079625,0.6777375,,,,,,,,,
1736664991588,,,,,,,,,,0.16555,0.3249125,0.6447375,,,,,,,,,
1736664991599,,,,,,,,,,0.21133749,0.25575,0.59894997,,,,,,,,,
1736664991608,,,,,,,,,,0.2443375,0.2079,0.558525,,,,,,,,,
1736664991618,,,,,,,,,,0.2517625,0.1854875,0.5308875,,,,,,,,,
1736664991628,,,,,,,,,,0.2358125,0.18975,0.5223625,,,,,,,,,
1736664991638,,,,,,,,,,0.210375,0.198275,0.523325,,,,,,,,,
1736664991648,,,,,,,,,,0.1890625,0.1706375,0.523325,,,,,,,,,
1736664991658,,,,,,,,,,0.2028125,0.099275,0.5064125,,,,,,,,,
1736664991669,,,,,,,,,,0.257125,0.0323125,0.46915,,,,,,,,,
1736664991678,,,,,,,,,,0.341275,0.0078375,0.4318875,,,,,,,,,
1736664991689,,,,,,,,,,0.4338125,0.02585,0.4074125,,,,,,,,,
1736664991699,,,,,,,,,,0.5050375,0.1078,0.4126375,,,,,,,,,
1736664991709,,,,,,,,,,0.5242875,0.2184875,0.460625,,,,,,,,,
1736664991719,,,,,,,,,,0.49665,0.3174875,0.53515,,,,,,,,,
1736664991729,,,,,,,,,,0.4486625,0.3845875,0.6149,,,,,,,,,
1736664991739,,,,,,,,,,0.3911875,0.394075,0.6829625,,,,,,,,,
1736664991750,,,,,,,,,,0.3422375,0.3388,0.7233875,,,,,,,,,
1736664991760,,,,,,,,,,0.3092375,0.2514875,0.72985,,,,,,,,,
1736664991770,,,,,,,,,,0.2943875,0.1524875,0.7011125,,,,,,,,,
1736664991779,,,,,,,,,,0.3157,0.037675,0.6414375,,,,,,,,,
1736664991790,,,,,,,,,,0.36355,-0.0433125,0.5787375,,,,,,,,,
1736664991799,,,,,,,,,,0.421025,-0.06875,0.5383125,,,,,,,,,
1736664991809,,,,,,,,,,0.4827625,-0.0400125,0.526625,,,,,,,,,
1736664991819,,,,,,,,,,0.5402375,0.019524999,0.53295,,,,,,,,,
1736664991830,,,,,,,,,,0.59345,0.06215,0.5468375,,,,,,,,,
1736664991840,,,,,,,,,,0.631675,0.100375,0.56374997,,,,,,,,,
1736664991849,,,,,,,,,,0.6413,0.15675,0.5935875,,,,,,,,,
1736664991859,,,,,,,,,,0.6274125,0.20253749,0.624525,,,,,,,,,
1736664991869,,,,,,,,,,0.5902875,0.2387,0.6499625,,,,,,,,,
1736664991880,,,,,,,,,,0.5328125,0.2525875,0.6681125,,,,,,,,,
1736664991890,,,,,,,,,,0.451825,0.2514875,0.688325,,,,,,,,,
1736664991899,,,,,,,,,,0.353925,0.2525875,0.715,,,,,,,,,
1736664991909,,,,,,,,,,0.2432375,0.282425,0.7469,,,,,,,,,
1736664991920,,,,,,,,,,0.1304875,0.3069,0.7799,,,,,,,,,
1736664991931,,,,,,,,,,0.0198,0.329175,0.804375,,,,,,,,,
1736664991940,,,,,,,,,,-0.0812625,0.3568125,0.8075375,,,,,,,,,
1736664991950,,,,,,,,,,-0.15895,0.378125,0.7808625,,,,,,,,,
1736664991960,,,,,,,,,,-0.2068,0.3823875,0.73095,,,,,,,,,
1736664991971,,,,,,,,,,-0.2303125,0.3845875,0.671275,,,,,,,,,
1736664991980,,,,,,,,,,-0.234575,0.3771625,0.6180625,,,,,,,,,
1736664991990,,,,,,,,,,-0.2195875,0.3771625,0.56705,,,,,,,,,
1736664992001,,,,,,,,,,-0.1973125,0.38885,0.5201625,,,,,,,,,
1736664992011,,,,,,,,,,-0.1791625,0.42185,0.4786375,,,,,,,,,
1736664992020,,,,,,,,,,-0.1780625,0.48675,0.43285,,,,,,,,,
1736664992030,,,,,,,,,,-0.1813625,0.5665,0.385,,,,,,,,,
1736664992041,,,,,,,,,,-0.183425,0.6304375,0.3306875,,,,,,,,,
1736664992050,,,,,,,,,,-0.1728375,0.6760875,0.27115,,,,,,,,,
1736664992060,,,,,,,,,,-0.150425,0.6879125,0.2116125,,,,,,,,,
1736664992070,,,,,,,,,,-0.1164625,0.65587497,0.1573,,,,,,,,,
1736664992080,,,,,,,,,,-0.070675,0.592075,0.116875,,,,,,,,,
1736664992090,,,,,,,,,,-0.019524999,0.507925,0.098725,,,,,,,,,
1736664992100,,,,,,,,,,0.0314875,0.4250125,0.099825,,,,,,,,,
1736664992110,,,,,,,,,,0.0719125,0.3718,0.1211375,,,,,,,,,
1736664992121,,,,,,,,,,0.095425,0.3504875,0.1573,,,,,,,,,
1736664992130,,,,,,,,,,0.10065,0.3388,0.198825,,,,,,,,,
1736664992141,,,,,,,,,,0.093225,0.3163875,0.2413125,,,,,,,,,
1736664992151,,,,,,,,,,0.0719125,0.3004375,0.2754125,,,,,,,,,
1736664992161,,,,,,,,,,0.036849998,0.296175,0.30525,,,,,,,,,
1736664992171,,,,,,,,,,0.00495,0.3036,0.3254625,,,,,,,,,
1736664992182,,,,,,,,,,-0.018424999,0.3196875,0.33715,,,,,,,,,
1736664992191,,,,,,,,,,-0.02695,0.313225,0.33715,,,,,,,,,
1736664992201,,,,,,,,,,-0.004675,0.25575,0.311575,,,,,,,,,
1736664992212,,,,,,,,,,0.044275,0.168575,0.262625,,,,,,,,,
1736664992221,,,,,,,,,,0.1188,0.067375,0.1956625,,,,,,,,,
1736664992231,,,,,,,,,,0.2028125,-0.0411125,0.122237496,,,,,,,,,
1736664992241,,,,,,,,,,0.2688125,-0.10285,0.0562375,,,,,,,,,
1736664992251,,,,,,,,,,0.3007125,-0.1007875,0.018975,,,,,,,,,
1736664992262,,,,,,,,,,0.29975,-0.0889625,0.0295625,,,,,,,,,
1736664992271,,,,,,,,,,0.2847625,-0.10505,0.0699875,,,,,,,,,
1736664992281,,,,,,,,,,0.2773375,-0.142175,0.1104125,,,,,,,,,
1736664992292,,,,,,,,,,0.275275,-0.1794375,0.1434125,,,,,,,,,
1736664992301,,,,,,,,,,0.2784375,-0.19965,0.17435,,,,,,,,,
1736664992312,,,,,,,,,,0.2805,-0.2039125,0.197725,,,,,,,,,
1736664992321,,,,,,,,,,0.274175,-0.1656875,0.2222,,,,,,,,,
1736664992332,,,,,,,,,,0.2550625,-0.10505,0.2446125,,,,,,,,,
1736664992341,,,,,,,,,,0.2156,-0.0433125,0.2520375,,,,,,,,,
1736664992351,,,,,,,,,,0.1549625,0.0056375,0.2424125,,,,,,,,,
1736664992361,,,,,,,,,,0.0878625,0.0301125,0.215875,,,,,,,,,
1736664992372,,,,,,,,,,0.0209,0.0429,0.17325,,,,,,,,,
1736664992382,,,,,,,,,,-0.037675,0.044,0.1189375,,,,,,,,,
1736664992392,,,,,,,,,,-0.0738375,0.035475,0.0572,,,,,,,,,
1736664992402,,,,,,,,,,-0.087725,0.02585,-0.0066,,,,,,,,,
1736664992412,,,,,,,,,,-0.0749375,0.0312125,-0.0661375,,,,,,,,,
1736664992422,,,,,,,,,,-0.0504625,0.0493625,-0.1067,,,,,,,,,
1736664992432,,,,,,,,,,-0.0143,0.0578875,-0.128975,,,,,,,,,
1736664992443,,,,,,,,,,0.0336875,0.0759,-0.130075,,,,,,,,,
1736664992452,,,,,,,,,,0.0826375,0.086625,-0.1034,,,,,,,,,
1736664992462,,,,,,,,,,0.127325,0.083325,-0.05775,,,,,,,,,
1736664992472,,,,,,,,,,0.1571625,0.069575,0.0050875,,,,,,,,,
1736664992483,,,,,,,,,,0.16885,0.0418,0.07315,,,,,,,,,
1736664992492,,,,,,,,,,0.16555,-0.00495,0.1370875,,,,,,,,,
1736664992502,,,,,,,,,,0.144375,-0.0677875,0.19139999,,,,,,,,,
1736664992513,,,,,,,,,,0.10285,-0.111375,0.231825,,,,,,,,,
1736664992522,,,,,,,,,,0.0517,-0.129525,0.2594625,,,,,,,,,
1736664992533,,,,,,,,,,0.00385,-0.127325,0.2690875,,,,,,,,,
1736664992542,,,,,,,,,,-0.0345125,-0.1093125,0.262625,,,,,,,,,
1736664992552,,,,,,,,,,-0.051425,-0.0763125,0.2424125,,,,,,,,,
1736664992563,,,,,,,,,,-0.0589875,-0.022,0.2168375,,,,,,,,,
1736664992573,,,,,,,,,,-0.0578875,0.044,0.19139999,,,,,,,,,
1736664992582,,,,,,,,,,-0.0578875,0.1142625,0.1689875,,,,,,,,,
1736664992593,,,,,,,,,,-0.06215,0.1706375,0.1508375,,,,,,,,,
1736664992604,,,,,,,,,,-0.0675125,0.1940125,0.13915,,,,,,,,,
1736664992614,,,,,,,,,,-0.070675,0.1929125,0.133925,,,,,,,,,
1736664992623,,,,,,,,,,-0.071775,0.17173749,0.132825,,,,,,,,,
1736664992633,,,,,,,,,,-0.069575,0.133375,0.132825,,,,,,,,,
1736664992643,,,,,,,,,,-0.071775,0.0972125,0.1381875,,,,,,,,,
1736664992654,,,,,,,,,,-0.078099996,0.0642125,0.1445125,,,,,,,,,
1736664992664,,,,,,,,,,-0.078099996,0.02695,0.1519375,,,,,,,,,
1736664992673,,,,,,,,,,-0.0664125,-0.0092124995,0.1530375,,,,,,,,,
1736664992683,,,,,,,,,,-0.0462,-0.0422125,0.146575,,,,,,,,,
1736664992694,,,,,,,,,,-0.0174625,-0.062425,0.1348875,,,,,,,,,
1736664992704,,,,,,,,,,0.013475,-0.0528,0.1254,,,,,,,,,
1736664992714,,,,,,,,,,0.03575,-0.0188375,0.1274625,,,,,,,,,
1736664992723,,,,,,,,,,0.059125,0.0301125,0.1456125,,,,,,,,,
1736664992733,,,,,,,,,,0.0815375,0.0790625,0.1786125,,,,,,,,,
1736664992743,,,,,,,,,,0.0985875,0.1142625,0.214775,,,,,,,,,
1736664992753,,,,,,,,,,0.1049125,0.1408,0.2424125,,,,,,,,,
1736664992764,,,,,,,,,,0.092125,0.176,0.277475,,,,,,,,,
1736664992773,,,,,,,,,,0.061325,0.2292125,0.310475,,,,,,,,,
1736664992783,,,,,,,,,,0.0070125,0.3058,0.3403125,,,,,,,,,
1736664992793,,,,,,,,,,-0.071775,0.4142875,0.3829375,,,,,,,,,
1736664992803,,,,,,,,,,-0.150425,0.491975,0.442475,,,,,,,,,
1736664992813,,,,,,,,,,-0.2058375,0.509025,0.49885,,,,,,,,,
1736664992824,,,,,,,,,,-0.232375,0.476025,0.5286875,,,,,,,,,
1736664992834,,,,,,,,,,-0.23773749,0.4239125,0.5212625,,,,,,,,,
1736664992844,,,,,,,,,,-0.2228875,0.3718,0.47547498,,,,,,,,,
1736664992854,,,,,,,,,,-0.1951125,0.3493875,0.408375,,,,,,,,,
1736664992864,,,,,,,,,,-0.167475,0.3696,0.3392125,,,,,,,,,
1736664992875,,,,,,,,,,-0.1419,0.425975,0.278575,,,,,,,,,
1736664992884,,,,,,,,,,-0.1238875,0.4686,0.246675,,,,,,,,,
1736664992894,,,,,,,,,,-0.1164625,0.4665375,0.24035,,,,,,,,,
1736664992904,,,,,,,,,,-0.118525,0.427075,0.245575,,,,,,,,,
1736664992914,,,,,,,,,,-0.12705,0.35585,0.2435125,,,,,,,,,
1736664992925,,,,,,,,,,-0.1387375,0.28875,0.215875,,,,,,,,,
1736664992934,,,,,,,,,,-0.1568875,0.2525875,0.1689875,,,,,,,,,
1736664992944,,,,,,,,,,-0.182325,0.2429625,0.120037496,,,,,,,,,
1736664992954,,,,,,,,,,-0.202675,0.2525875,0.0721875,,,,,,,,,
1736664992964,,,,,,,,,,-0.2132625,0.26633748,0.0317625,,,,,,,,,
1736664992975,,,,,,,,,,-0.2101,0.2706,0.0039875,,,,,,,,,
1736664992985,,,,,,,,,,-0.1984125,0.2706,-0.013062499,,,,,,,,,
1736664992994,,,,,,,,,,-0.1813625,0.263175,-0.02255,,,,,,,,,
1736664993004,,,,,,,,,,-0.1632125,0.25795,-0.0268125,,,,,,,,,
1736664993015,,,,,,,,,,-0.1461625,0.263175,-0.02475,,,,,,,,,
1736664993024,,,,,,,,,,-0.1249875,0.2770625,-0.0119624995,,,,,,,,,
1736664993035,,,,,,,,,,-0.104637496,0.3058,0.0114124995,,,,,,,,,
1736664993044,,,,,,,,,,-0.0886875,0.3377,0.0477125,,,,,,,,,
1736664993055,,,,,,,,,,-0.0727375,0.36107498,0.0933625,,,,,,,,,
1736664993065,,,,,,,,,,-0.06325,0.3727625,0.1434125,,,,,,,,,
1736664993075,,,,,,,,,,-0.06215,0.378125,0.1838375,,,,,,,,,
1736664993085,,,,,,,,,,-0.0738375,0.38775,0.215875,,,,,,,,,
1736664993096,,,,,,,,,,-0.0908875,0.3845875,0.229625,,,,,,,,,
1736664993105,,,,,,,,,,-0.1005125,0.3515875,0.2360875,,,,,,,,,
1736664993116,,,,,,,,,,-0.0897875,0.2855875,0.23925,,,,,,,,,
1736664993125,,,,,,,,,,-0.06325,0.199375,0.23705,,,,,,,,,
1736664993135,,,,,,,,,,-0.0174625,0.104637496,0.23705,,,,,,,,,
1736664993145,,,,,,,,,,0.0336875,0.0451,0.2349875,,,,,,,,,
1736664993155,,,,,,,,,,0.0793375,0.0429,0.24035,,,,,,,,,
1736664993165,,,,,,,,,,0.1071125,0.082225,0.247775,,,,,,,,,
1736664993175,,,,,,,,,,0.117699996,0.1387375,0.2563,,,,,,,,,
1736664993185,,,,,,,,,,0.108075,0.18975,0.27115,,,,,,,,,
1736664993195,,,,,,,,,,0.0847,0.22495,0.294525,,,,,,,,,
1736664993206,,,,,,,,,,0.0506,0.2355375,0.3212,,,,,,,,,
1736664993215,,,,,,,,,,0.011275,0.2206875,0.3488375,,,,,,,,,
1736664993225,,,,,,,,,,-0.021724999,0.1865875,0.375375,,,,,,,,,
1736664993235,,,,,,,,,,-0.0419375,0.149325,0.3892625,,,,,,,,,
1736664993245,,,,,,,,,,-0.044,0.1216875,0.3861,,,,,,,,,
1736664993255,,,,,,,,,,-0.0334125,0.11,0.3573625,,,,,,,,,
1736664993266,,,,,,,,,,-0.015262499,0.118525,0.3201,,,,,,,,,
1736664993275,,,,,,,,,,0.00385,0.1302125,0.28393748,,,,,,,,,
1736664993287,,,,,,,,,,0.0177375,0.12595,0.246675,,,,,,,,,
1736664993297,,,,,,,,,,0.0336875,0.0983125,0.2094125,,,,,,,,,
1736664993307,,,,,,,,,,0.0400125,0.0556875,0.1667875,,,,,,,,,
1736664993316,,,,,,,,,,0.0422125,0.001375,0.1232,,,,,,,,,
1736664993327,,,,,,,,,,0.0485375,-0.046475,0.0774125,,,,,,,,,
1736664993336,,,,,,,,,,0.0559625,-0.0741125,0.032725,,,,,,,,,
1736664993346,,,,,,,,,,0.06875,-0.0891,-0.0108624995,,,,,,,,,
1736664993356,,,,,,,,,,0.0793375,-0.06985,-0.05775,,,,,,,,,
1736664993366,,,,,,,,,,0.0836,-0.029424999,-0.102437496,,,,,,,,,
1736664993377,,,,,,,,,,0.0719125,0.0237875,-0.1375,,,,,,,,,
1736664993386,,,,,,,,,,0.0474375,0.066275,-0.15565,,,,,,,,,
1736664993397,,,,,,,,,,0.0198,0.066275,-0.1588125,,,,,,,,,
1736664993406,,,,,,,,,,-0.004675,0.0290125,-0.1588125,,,,,,,,,
1736664993417,,,,,,,,,,-0.022824999,-0.0242,-0.1566125,,,,,,,,,
1736664993426,,,,,,,,,,-0.02915,-0.0752125,-0.1577125,,,,,,,,,
1736664993437,,,,,,,,,,-0.03025,-0.1093125,-0.1662375,,,,,,,,,
1736664993446,,,,,,,,,,-0.0248875,-0.115637496,-0.1727,,,,,,,,,
1736664993457,,,,,,,,,,-0.020624999,-0.0996875,-0.1747625,,,,,,,,,
1736664993466,,,,,,,,,,-0.0163625,-0.0763125,-0.1705,,,,,,,,,
1736664993476,,,,,,,,,,-0.0174625,-0.0666875,-0.15235,,,,,,,,,
1736664993487,,,,,,,,,,-0.019524999,-0.07205,-0.128975,,,,,,,,,
1736664993496,,,,,,,,,,-0.021724999,-0.079475,-0.0991375,,,,,,,,,
1736664993506,,,,,,,,,,-0.0237875,-0.0848375,-0.0757625,,,,,,,,,
1736664993517,,,,,,,,,,-0.03135,-0.080575,-0.064075,,,,,,,,,
1736664993527,,,,,,,,,,-0.0419375,-0.0763125,-0.0587125,,,,,,,,,
1736664993538,,,,,,,,,,-0.054725,-0.063525,-0.0523875,,,,,,,,,
1736664993547,,,,,,,,,,-0.0738375,-0.039049998,-0.0427625,,,,,,,,,
1736664993558,,,,,,,,,,-0.0994125,-6.875E-4,-0.0353375,,,,,,,,,
1736664993568,,,,,,,,,,-0.12815,0.0471625,-0.029975,,,,,,,,,
1736664993578,,,,,,,,,,-0.16005,0.082225,-0.0279125,,,,,,,,,
1736664993587,,,,,,,,,,-0.1898875,0.101475,-0.0364375,,,,,,,,,
1736664993597,,,,,,,,,,-0.20899999,0.102437496,-0.0609125,,,,,,,,,
1736664993608,,,,,,,,,,-0.2143625,0.073699996,-0.1067,,,,,,,,,
1736664993617,,,,,,,,,,-0.199375,0.02475,-0.163075,,,,,,,,,
1736664993628,,,,,,,,,,-0.1621125,-0.036849998,-0.2259125,,,,,,,,,
1736664993638,,,,,,,,,,-0.102575,-0.1199,-0.28655,,,,,,,,,
1736664993647,,,,,,,,,,-0.03025,-0.20185,-0.3386625,,,,,,,,,
1736664993657,,,,,,,,,,0.045375,-0.260425,-0.38334998,,,,,,,,,
1736664993667,,,,,,,,,,0.1123375,-0.293425,-0.4015,,,,,,,,,
1736664993677,,,,,,,,,,0.1698125,-0.3040125,-0.389675,,,,,,,,,
1736664993687,,,,,,,,,,0.2050125,-0.2880625,-0.356675,,,,,,,,,
1736664993697,,,,,,,,,,0.2145,-0.2476375,-0.3003,,,,,,,,,
1736664993707,,,,,,,,,,0.2050125,-0.1975875,-0.2322375,,,,,,,,,
1736664993718,,,,,,,,,,0.1815,-0.1571625,-0.1599125,,,,,,,,,
1736664993728,,,,,,,,,,0.1379125,-0.128425,-0.0939125,,,,,,,,,
1736664993738,,,,,,,,,,0.0815375,-0.112475,-0.033275,,,,,,,,,
1736664993748,,,,,,,,,,0.0081124995,-0.0900625,0.0253,,,,,,,,,
1736664993758,,,,,,,,,,-0.0664125,-0.0507375,0.083875,,,,,,,,,
1736664993769,,,,,,,,,,-0.136675,-6.875E-4,0.1348875,,,,,,,,,
1736664993779,,,,,,,,,,-0.185625,0.0534875,0.165825,,,,,,,,,
1736664993788,,,,,,,,,,-0.2036375,0.099275,0.1775125,,,,,,,,,
1736664993798,,,,,,,,,,-0.19305,0.1183875,0.164725,,,,,,,,,
1736664993808,,,,,,,,,,-0.1632125,0.09295,0.132825,,,,,,,,,
1736664993818,,,,,,,,,,-0.1216875,0.0471625,0.1007875,,,,,,,,,
1736664993829,,,,,,,,,,-0.0803,0.013062499,0.0763125,,,,,,,,,
1736664993838,,,,,,,,,,-0.0408375,-0.0103124995,0.0603625,,,,,,,,,
1736664993848,,,,,,,,,,-0.0121,-0.0199375,0.0455125,,,,,,,,,
1736664993858,,,,,,,,,,0.011275,-0.0209,0.0284625,,,,,,,,,
1736664993868,,,,,,,,,,0.036849998,-0.0358875,-0.0023375,,,,,,,,,
1736664993878,,,,,,,,,,0.0581625,-0.062425,-0.0438625,,,,,,,,,
1736664993888,,,,,,,,,,0.0708125,-0.078375,-0.082225,,,,,,,,,
1736664993899,,,,,,,,,,0.06655,-0.07315,-0.1013375,,,,,,,,,
1736664993908,,,,,,,,,,0.0570625,-0.0561,-0.100237496,,,,,,,,,
1736664993918,,,,,,,,,,0.043175,-0.0242,-0.08855,,,,,,,,,
1736664993929,,,,,,,,,,0.0240625,0.003575,-0.0705375,,,,,,,,,
1736664993938,,,,,,,,,,0.010175,0.0215875,-0.0534875,,,,,,,,,
1736664993949,,,,,,,,,,-0.003575,0.0364375,-0.0407,,,,,,,,,
1736664993958,,,,,,,,,,-0.0100375,0.0407,-0.031075,,,,,,,,,
1736664993969,,,,,,,,,,-0.006875,0.035475,-0.02255,,,,,,,,,
1736664993979,,,,,,,,,,6.875E-4,0.0237875,-0.0215875,,,,,,,,,
1736664993990,,,,,,,,,,0.0133375,0.0119624995,-0.0215875,,,,,,,,,
1736664994000,,,,,,,,,,0.026124999,0.0067375,-0.0204875,,,,,,,,,
1736664994009,,,,,,,,,,0.0411125,0.0119624995,-0.0108624995,,,,,,,,,
1736664994019,,,,,,,,,,0.0528,0.02805,-2.75E-4,,,,,,,,,
1736664994029,,,,,,,,,,0.0570625,0.0418,0.0199375,,,,,,,,,
1736664994039,,,,,,,,,,0.061325,0.0375375,0.0391875,,,,,,,,,
1736664994049,,,,,,,,,,0.06765,0.015262499,0.0444125,,,,,,,,,
1736664994060,,,,,,,,,,0.06875,-0.0103124995,0.0380875,,,,,,,,,
1736664994069,,,,,,,,,,0.0644875,-0.0347875,0.0306625,,,,,,,,,
1736664994080,,,,,,,,,,0.0570625,-0.047575,0.0231,,,,,,,,,
1736664994089,,,,,,,,,,0.0463375,-0.048675,0.0210375,,,,,,,,,
1736664994099,,,,,,,,,,0.029424999,-0.041249998,0.0264,,,,,,,,,
1736664994110,,,,,,,,,,0.0092124995,-0.0273625,0.0306625,,,,,,,,,
1736664994120,,,,,,,,,,-0.0089375,0.001375,0.032725,,,,,,,,,
1736664994129,,,,,,,,,,-0.0270875,0.0397375,0.0358875,,,,,,,,,
1736664991137,,,,,,,,,,,,,1.776522,0.525863,-0.576688,,,,,,
1736664991146,,,,,,,,,,,,,1.171488,0.620996,-0.574345,,,,,,
1736664991156,,,,,,,,,,,,,2.344072,0.154754,-0.97608,,,,,,
1736664991166,,,,,,,,,,,,,1.79031,0.2823,-0.652318,,,,,,
1736664991177,,,,,,,,,,,,,2.305713,-0.113014,-1.372759,,,,,,
1736664991186,,,,,,,,,,,,,1.980739,0.059378,-1.073661,,,,,,
1736664991196,,,,,,,,,,,,,2.106697,-0.290029,-1.24374,,,,,,
1736664991206,,,,,,,,,,,,,1.84406,-0.174039,-1.28474,,,,,,
1736664991216,,,,,,,,,,,,,1.803651,-0.137029,-0.624887,,,,,,
1736664991227,,,,,,,,,,,,,1.684055,-0.158699,-0.851874,,,,,,
1736664991238,,,,,,,,,,,,,1.479658,0.046465,-0.129164,,,,,,
1736664991247,,,,,,,,,,,,,1.429333,0.021764,-0.2635,,,,,,
1736664991257,,,,,,,,,,,,,1.136631,0.140884,0.088196,,,,,,
1736664991267,,,,,,,,,,,,,1.145172,0.11219,0.123203,,,,,,
1736664991278,,,,,,,,,,,,,0.603069,0.210431,-0.075413,,,,,,
1736664991287,,,,,,,,,,,,,0.745301,0.192974,0.052506,,,,,,
1736664991297,,,,,,,,,,,,,0.156111,0.062598,0.073131,,,,,,
1736664991307,,,,,,,,,,,,,0.264031,0.135298,-0.026971,,,,,,
1736664991317,,,,,,,,,,,,,0.140029,-0.144513,0.52801,,,,,,
1736664991327,,,,,,,,,,,,,0.153653,0.005164,0.285531,,,,,,
1736664991337,,,,,,,,,,,,,0.283883,-0.105332,0.903802,,,,,,
1736664991348,,,,,,,,,,,,,0.277976,-0.082159,0.696096,,,,,,
1736664991357,,,,,,,,,,,,,0.366876,0.17243,1.007649,,,,,,
1736664991367,,,,,,,,,,,,,0.354147,0.026316,1.001703,,,,,,
1736664991377,,,,,,,,,,,,,0.093608,0.476723,0.847556,,,,,,
1736664991387,,,,,,,,,,,,,0.300647,0.311999,0.932221,,,,,,
1736664991397,,,,,,,,,,,,,-0.337484,0.694997,0.724026,,,,,,
1736664991408,,,,,,,,,,,,,-0.138649,0.519912,0.799407,,,,,,
1736664991417,,,,,,,,,,,,,-0.387069,0.709579,0.306797,,,,,,
1736664991427,,,,,,,,,,,,,-0.335735,0.565732,0.534909,,,,,,
1736664991437,,,,,,,,,,,,,-0.284166,0.745898,-0.07537,,,,,,
1736664991448,,,,,,,,,,,,,-0.302261,0.524187,0.113649,,,,,,
1736664991459,,,,,,,,,,,,,-0.2532,0.855915,-0.410366,,,,,,
1736664991468,,,,,,,,,,,,,-0.233419,0.615356,-0.19362,,,,,,
1736664991478,,,,,,,,,,,,,-0.259738,0.781621,-0.969639,,,,,,
1736664991489,,,,,,,,,,,,,-0.328048,0.584883,-0.60963,,,,,,
1736664991498,,,,,,,,,,,,,-0.155282,0.541286,-1.329138,,,,,,
1736664991509,,,,,,,,,,,,,-0.219851,0.519799,-1.17055,,,,,,
1736664991518,,,,,,,,,,,,,-0.284101,0.129177,-0.977649,,,,,,
1736664991528,,,,,,,,,,,,,-0.232323,0.226362,-1.251849,,,,,,
1736664991538,,,,,,,,,,,,,-0.323126,-0.128122,0.067447,,,,,,
1736664991548,,,,,,,,,,,,,-0.285478,-0.048726,-0.449708,,,,,,
1736664991558,,,,,,,,,,,,,-0.22238,-0.307224,0.680044,,,,,,
1736664991568,,,,,,,,,,,,,-0.191939,-0.14467,0.387644,,,,,,
1736664991579,,,,,,,,,,,,,-0.041183,-0.271749,0.753535,,,,,,
1736664991588,,,,,,,,,,,,,-0.059317,-0.214738,0.739479,,,,,,
1736664991599,,,,,,,,,,,,,0.06985,-0.082295,0.560148,,,,,,
1736664991608,,,,,,,,,,,,,0.065627,-0.17249,0.636235,,,,,,
1736664991618,,,,,,,,,,,,,0.009145,0.117102,0.454381,,,,,,
1736664991628,,,,,,,,,,,,,0.124433,0.05872,0.424384,,,,,,
1736664991638,,,,,,,,,,,,,-0.147286,0.186967,0.827047,,,,,,
1736664991648,,,,,,,,,,,,,-0.037049,0.134918,0.585029,,,,,,
1736664991658,,,,,,,,,,,,,-0.11439,0.268257,0.811117,,,,,,
1736664991668,,,,,,,,,,,,,-0.072732,0.221077,0.892006,,,,,,
1736664991678,,,,,,,,,,,,,-0.354751,0.428934,0.402776,,,,,,
1736664991689,,,,,,,,,,,,,-0.0907,0.289534,0.6416,,,,,,
1736664991699,,,,,,,,,,,,,-1.007408,0.2692,0.119255,,,,,,
1736664991709,,,,,,,,,,,,,-0.584528,0.218162,0.144341,,,,,,
1736664991719,,,,,,,,,,,,,-1.061298,0.143858,0.504528,,,,,,
1736664991729,,,,,,,,,,,,,-0.928131,0.157702,0.216644,,,,,,
1736664991739,,,,,,,,,,,,,-0.70806,-0.057799,0.828739,,,,,,
1736664991749,,,,,,,,,,,,,-0.697648,0.033213,0.643482,,,,,,
1736664991759,,,,,,,,,,,,,-0.39952,-0.154177,0.79067,,,,,,
1736664991769,,,,,,,,,,,,,-0.45613,-0.135581,0.762565,,,,,,
1736664991779,,,,,,,,,,,,,-0.319067,-0.01548,0.311874,,,,,,
1736664991789,,,,,,,,,,,,,-0.260981,-0.062448,0.607996,,,,,,
1736664991800,,,,,,,,,,,,,-0.423635,0.078334,-0.286647,,,,,,
1736664991809,,,,,,,,,,,,,-0.350385,-0.016661,-0.016225,,,,,,
1736664991820,,,,,,,,,,,,,-0.34255,0.141918,-0.599527,,,,,,
1736664991829,,,,,,,,,,,,,-0.374619,0.00568,-0.416347,,,,,,
1736664991840,,,,,,,,,,,,,-0.311971,0.011365,-1.057988,,,,,,
1736664991849,,,,,,,,,,,,,-0.322818,-0.057538,-0.815043,,,,,,
1736664991859,,,,,,,,,,,,,-0.269483,-0.145737,-1.263643,,,,,,
1736664991869,,,,,,,,,,,,,-0.280681,-0.177212,-1.113447,,,,,,
1736664991879,,,,,,,,,,,,,-0.488092,-0.443145,-1.329965,,,,,,
1736664991889,,,,,,,,,,,,,-0.321131,-0.350785,-1.310691,,,,,,
1736664991899,,,,,,,,,,,,,-0.655128,-0.672248,-1.16083,,,,,,
1736664991909,,,,,,,,,,,,,-0.581888,-0.591329,-1.356063,,,,,,
1736664991920,,,,,,,,,,,,,-0.668486,-0.808288,-0.815448,,,,,,
1736664991930,,,,,,,,,,,,,-0.609979,-0.632419,-1.030231,,,,,,
1736664991941,,,,,,,,,,,,,-0.472847,-0.778571,-0.307941,,,,,,
1736664991950,,,,,,,,,,,,,-0.483363,-0.692214,-0.68264,,,,,,
1736664991960,,,,,,,,,,,,,-0.552083,-0.665189,0.023233,,,,,,
1736664991970,,,,,,,,,,,,,-0.435797,-0.554613,-0.210826,,,,,,
1736664991981,,,,,,,,,,,,,-0.410111,-0.395359,0.106925,,,,,,
1736664991990,,,,,,,,,,,,,-0.404456,-0.375258,0.029255,,,,,,
1736664992000,,,,,,,,,,,,,-0.256376,-0.184218,-0.034206,,,,,,
1736664992010,,,,,,,,,,,,,-0.204769,-0.172435,0.022476,,,,,,
1736664992020,,,,,,,,,,,,,-0.192024,0.049164,0.15304,,,,,,
1736664992031,,,,,,,,,,,,,-0.110877,-0.028131,-0.025616,,,,,,
1736664992040,,,,,,,,,,,,,-0.226241,0.291716,0.560087,,,,,,
1736664992050,,,,,,,,,,,,,-0.043346,0.204293,0.28538,,,,,,
1736664992060,,,,,,,,,,,,,-0.288739,0.613758,0.965754,,,,,,
1736664992070,,,,,,,,,,,,,-0.075747,0.423216,0.763322,,,,,,
1736664992081,,,,,,,,,,,,,-0.359208,0.880383,1.008085,,,,,,
1736664992090,,,,,,,,,,,,,-0.158397,0.678102,1.040999,,,,,,
1736664992100,,,,,,,,,,,,,-0.20156,1.016622,0.60919,,,,,,
1736664992111,,,,,,,,,,,,,-0.145865,0.870008,0.835248,,,,,,
1736664992120,,,,,,,,,,,,,-0.021624,0.961209,0.42933,,,,,,
1736664992130,,,,,,,,,,,,,-0.035793,0.87666,0.478586,,,,,,
1736664992141,,,,,,,,,,,,,0.077233,0.492466,0.310747,,,,,,
1736664992151,,,,,,,,,,,,,0.096714,0.693692,0.393895,,,,,,
1736664992162,,,,,,,,,,,,,0.011831,-0.165161,0.44892,,,,,,
1736664992171,,,,,,,,,,,,,0.114065,0.158286,0.3419,,,,,,
1736664992181,,,,,,,,,,,,,-0.073651,-0.771011,0.853712,,,,,,
1736664992191,,,,,,,,,,,,,-0.016427,-0.398907,0.593172,,,,,,
1736664992201,,,,,,,,,,,,,0.159301,-0.955024,0.983919,,,,,,
1736664992211,,,,,,,,,,,,,0.039138,-0.757174,0.942336,,,,,,
1736664992221,,,,,,,,,,,,,0.402017,-0.432499,0.608262,,,,,,
1736664992231,,,,,,,,,,,,,0.28934,-0.653238,0.88117,,,,,,
1736664992241,,,,,,,,,,,,,0.193754,0.123234,0.058104,,,,,,
1736664992251,,,,,,,,,,,,,0.2693,-0.169134,0.248033,,,,,,
1736664992261,,,,,,,,,,,,,0.190202,0.578602,-0.008759,,,,,,
1736664992271,,,,,,,,,,,,,0.07124,0.275341,0.039824,,,,,,
1736664992281,,,,,,,,,,,,,0.40975,0.553442,-0.294579,,,,,,
1736664992292,,,,,,,,,,,,,0.242934,0.495028,-0.059794,,,,,,
1736664992301,,,,,,,,,,,,,0.423367,0.233771,-0.681736,,,,,,
1736664992311,,,,,,,,,,,,,0.28409,0.268398,-0.416452,,,,,,
1736664992322,,,,,,,,,,,,,0.441989,-0.15452,-0.887794,,,,,,
1736664992331,,,,,,,,,,,,,0.342735,-0.029451,-0.775928,,,,,,
1736664992342,,,,,,,,,,,,,0.310606,-0.605484,-0.909633,,,,,,
1736664992351,,,,,,,,,,,,,0.279436,-0.375608,-0.943916,,,,,,
1736664992362,,,,,,,,,,,,,0.038937,-0.905469,-0.689666,,,,,,
1736664992372,,,,,,,,,,,,,0.147461,-0.682029,-0.804633,,,,,,
1736664992382,,,,,,,,,,,,,-0.162652,-0.807993,-0.404777,,,,,,
1736664992393,,,,,,,,,,,,,-0.102348,-0.79676,-0.601953,,,,,,
1736664992403,,,,,,,,,,,,,-0.35873,-0.346285,-0.211735,,,,,,
1736664992412,,,,,,,,,,,,,-0.194532,-0.483245,-0.299979,,,,,,
1736664992422,,,,,,,,,,,,,-0.419458,0.28999,0.005355,,,,,,
1736664992433,,,,,,,,,,,,,-0.32952,-0.037604,-0.104532,,,,,,
1736664992442,,,,,,,,,,,,,-0.310085,0.861402,0.220273,,,,,,
1736664992452,,,,,,,,,,,,,-0.287305,0.523188,0.143282,,,,,,
1736664992462,,,,,,,,,,,,,-0.255445,0.928832,0.201023,,,,,,
1736664992472,,,,,,,,,,,,,-0.217594,0.801485,0.266252,,,,,,
1736664992483,,,,,,,,,,,,,-0.134236,0.712356,0.069114,,,,,,
1736664992492,,,,,,,,,,,,,-0.133463,0.712902,0.22872,,,,,,
1736664992502,,,,,,,,,,,,,-0.095139,0.110382,-0.455283,,,,,,
1736664992512,,,,,,,,,,,,,-0.124392,0.325936,-0.18085,,,,,,
1736664992522,,,,,,,,,,,,,0.097594,-0.305904,-0.667066,,,,,,
1736664992533,,,,,,,,,,,,,-0.086,-0.139665,-0.599082,,,,,,
1736664992543,,,,,,,,,,,,,0.267489,-0.406666,-0.670605,,,,,,
1736664992553,,,,,,,,,,,,,0.126087,-0.329213,-0.683779,,,,,,
1736664992562,,,,,,,,,,,,,0.196832,-0.471848,-0.609498,,,,,,
1736664992572,,,,,,,,,,,,,0.160856,-0.401933,-0.652128,,,,,,
1736664992582,,,,,,,,,,,,,-0.061706,-0.44934,-0.256181,,,,,,
1736664992593,,,,,,,,,,,,,0.087528,-0.39623,-0.483288,,,,,,
1736664992603,,,,,,,,,,,,,-0.15303,-0.317784,0.135504,,,,,,
1736664992613,,,,,,,,,,,,,-0.099324,-0.319701,-0.062914,,,,,,
1736664992624,,,,,,,,,,,,,-0.176934,-0.241343,0.337973,,,,,,
1736664992633,,,,,,,,,,,,,-0.109146,-0.200058,0.243688,,,,,,
1736664992643,,,,,,,,,,,,,-0.219034,-0.163325,0.368371,,,,,,
1736664992653,,,,,,,,,,,,,-0.175367,-0.145959,0.319419,,,,,,
1736664992663,,,,,,,,,,,,,-0.223234,-0.147412,0.342115,,,,,,
1736664992674,,,,,,,,,,,,,-0.179324,-0.104127,0.372174,,,,,,
1736664992683,,,,,,,,,,,,,-0.184459,0.099675,0.062353,,,,,,
1736664992693,,,,,,,,,,,,,-0.179579,-0.02822,0.236704,,,,,,
1736664992703,,,,,,,,,,,,,-0.440383,0.263993,-0.236364,,,,,,
1736664992713,,,,,,,,,,,,,-0.228427,0.160175,-0.123649,,,,,,
1736664992723,,,,,,,,,,,,,-0.441157,0.47103,-0.394307,,,,,,
1736664992733,,,,,,,,,,,,,-0.454728,0.290287,-0.316353,,,,,,
1736664992744,,,,,,,,,,,,,-0.229811,0.496125,-0.671627,,,,,,
1736664992753,,,,,,,,,,,,,-0.248913,0.408139,-0.493494,,,,,,
1736664992763,,,,,,,,,,,,,-0.003601,0.527787,-0.918526,,,,,,
1736664992774,,,,,,,,,,,,,-0.092595,0.414042,-0.771217,,,,,,
1736664992784,,,,,,,,,,,,,-0.062935,0.203969,-0.83057,,,,,,
1736664992793,,,,,,,,,,,,,0.028634,0.299661,-0.96478,,,,,,
1736664992803,,,,,,,,,,,,,0.118161,-0.312168,-0.086606,,,,,,
1736664992814,,,,,,,,,,,,,-0.01252,-0.052051,-0.467089,,,,,,
1736664992824,,,,,,,,,,,,,0.794114,-0.597795,0.185586,,,,,,
1736664992835,,,,,,,,,,,,,0.454054,-0.327877,0.085145,,,,,,
1736664992844,,,,,,,,,,,,,0.981143,-0.680137,0.058768,,,,,,
1736664992854,,,,,,,,,,,,,0.855167,-0.494236,0.12622,,,,,,
1736664992864,,,,,,,,,,,,,0.731573,-0.636834,0.033889,,,,,,
1736664992874,,,,,,,,,,,,,0.850229,-0.53121,-0.059719,,,,,,
1736664992885,,,,,,,,,,,,,0.333298,-0.600203,0.236981,,,,,,
1736664992894,,,,,,,,,,,,,0.460181,-0.481259,0.12602,,,,,,
1736664992904,,,,,,,,,,,,,0.475977,-0.528726,0.164676,,,,,,
1736664992915,,,,,,,,,,,,,0.362525,-0.439232,0.232444,,,,,,
1736664992925,,,,,,,,,,,,,0.503342,-0.451366,-0.07959,,,,,,
1736664992934,,,,,,,,,,,,,0.50032,-0.389379,0.012653,,,,,,
1736664992945,,,,,,,,,,,,,0.157403,-0.288763,-0.064704,,,,,,
1736664992954,,,,,,,,,,,,,0.337159,-0.300214,-0.149944,,,,,,
1736664992964,,,,,,,,,,,,,-0.268442,0.002356,0.165039,,,,,,
1736664992974,,,,,,,,,,,,,-0.002909,-0.078727,0.034013,,,,,,
1736664992984,,,,,,,,,,,,,-0.541563,0.260526,0.232278,,,,,,
1736664992995,,,,,,,,,,,,,-0.329162,0.141457,0.196127,,,,,,
1736664993004,,,,,,,,,,,,,-0.616573,0.518605,0.202614,,,,,,
1736664993014,,,,,,,,,,,,,-0.438699,0.377369,0.188437,,,,,,
1736664993024,,,,,,,,,,,,,-0.636346,0.676855,0.22763,,,,,,
1736664993034,,,,,,,,,,,,,-0.47017,0.563642,0.202987,,,,,,
1736664993044,,,,,,,,,,,,,-0.650966,0.578085,0.260443,,,,,,
1736664993055,,,,,,,,,,,,,-0.492258,0.57219,0.247455,,,,,,
1736664993065,,,,,,,,,,,,,-0.526388,0.303258,0.234427,,,,,,
1736664993075,,,,,,,,,,,,,-0.441177,0.421808,0.252986,,,,,,
1736664993085,,,,,,,,,,,,,-0.367609,0.149867,0.494834,,,,,,
1736664993095,,,,,,,,,,,,,-0.302376,0.190628,0.257306,,,,,,
1736664993105,,,,,,,,,,,,,-0.239768,0.128938,0.867761,,,,,,
1736664993115,,,,,,,,,,,,,-0.188633,0.172927,0.709726,,,,,,
1736664993126,,,,,,,,,,,,,-0.124249,0.181893,0.746412,,,,,,
1736664993135,,,,,,,,,,,,,-0.141073,0.138546,0.895372,,,,,,
1736664993145,,,,,,,,,,,,,0.034579,0.2325,0.062797,,,,,,
1736664993155,,,,,,,,,,,,,-0.040689,0.165857,0.396409,,,,,,
1736664993165,,,,,,,,,,,,,0.108697,0.309373,-0.273635,,,,,,
1736664993176,,,,,,,,,,,,,0.093529,0.223653,-0.139563,,,,,,
1736664993186,,,,,,,,,,,,,0.116027,0.314045,-0.254988,,,,,,
1736664993195,,,,,,,,,,,,,0.100314,0.253321,-0.289509,,,,,,
1736664993206,,,,,,,,,,,,,0.217626,0.171414,-0.038511,,,,,,
1736664993215,,,,,,,,,,,,,0.159192,0.237419,-0.130682,,,,,,
1736664993226,,,,,,,,,,,,,0.53463,-0.088485,0.149249,,,,,,
1736664993235,,,,,,,,,,,,,0.277694,0.034318,0.068765,,,,,,
1736664993245,,,,,,,,,,,,,0.872576,-0.26611,0.18376,,,,,,
1736664993255,,,,,,,,,,,,,0.654376,-0.131097,0.183965,,,,,,
1736664993266,,,,,,,,,,,,,0.791669,-0.384814,0.267432,,,,,,
1736664993275,,,,,,,,,,,,,0.723935,-0.271476,0.186884,,,,,,
1736664993286,,,,,,,,,,,,,0.683269,-0.385537,0.322158,,,,,,
1736664993296,,,,,,,,,,,,,0.657828,-0.308217,0.306845,,,,,,
1736664993306,,,,,,,,,,,,,0.617227,-0.389163,0.274545,,,,,,
1736664993316,,,,,,,,,,,,,0.517834,-0.349818,0.322958,,,,,,
1736664993327,,,,,,,,,,,,,0.591495,-0.266305,0.058275,,,,,,
1736664993337,,,,,,,,,,,,,0.515215,-0.292816,0.15943,,,,,,
1736664993346,,,,,,,,,,,,,0.501292,-0.116313,-0.26955,,,,,,
1736664993356,,,,,,,,,,,,,0.478204,-0.168956,-0.082421,,,,,,
1736664993366,,,,,,,,,,,,,0.174867,-0.025866,-0.34791,,,,,,
1736664993376,,,,,,,,,,,,,0.311379,-0.100589,-0.374274,,,,,,
1736664993386,,,,,,,,,,,,,-0.189802,0.132227,0.041718,,,,,,
1736664993396,,,,,,,,,,,,,-0.015123,0.043356,-0.179186,,,,,,
1736664993406,,,,,,,,,,,,,-0.354559,0.130488,0.159532,,,,,,
1736664993417,,,,,,,,,,,,,-0.264639,0.124345,0.140035,,,,,,
1736664993426,,,,,,,,,,,,,-0.354811,0.200619,0.038353,,,,,,
1736664993437,,,,,,,,,,,,,-0.285571,0.129774,0.129582,,,,,,
1736664993446,,,,,,,,,,,,,-0.423085,0.312642,-0.110351,,,,,,
1736664993456,,,,,,,,,,,,,-0.326284,0.226262,-0.06467,,,,,,
1736664993466,,,,,,,,,,,,,-0.508255,0.341756,-0.067771,,,,,,
1736664993476,,,,,,,,,,,,,-0.410662,0.28258,-0.084959,,,,,,
1736664993487,,,,,,,,,,,,,-0.447003,0.238212,-0.18338,,,,,,
1736664993496,,,,,,,,,,,,,-0.441514,0.255717,-0.114646,,,,,,
1736664993506,,,,,,,,,,,,,-0.101823,0.15169,-0.345059,,,,,,
1736664993517,,,,,,,,,,,,,-0.250478,0.15815,-0.268988,,,,,,
1736664993527,,,,,,,,,,,,,0.139109,-0.022717,-0.453491,,,,,,
1736664993537,,,,,,,,,,,,,-0.002065,0.063464,-0.392989,,,,,,
1736664993547,,,,,,,,,,,,,0.291071,-0.221041,-0.400197,,,,,,
1736664993557,,,,,,,,,,,,,0.197133,-0.10272,-0.475893,,,,,,
1736664993567,,,,,,,,,,,,,0.244466,-0.496048,-0.021643,,,,,,
1736664993577,,,,,,,,,,,,,0.240269,-0.270524,-0.258285,,,,,,
1736664993588,,,,,,,,,,,,,0.233785,-0.751958,0.501215,,,,,,
1736664993597,,,,,,,,,,,,,0.221813,-0.513634,0.197043,,,,,,
1736664993607,,,,,,,,,,,,,0.060159,-0.786732,0.97651,,,,,,
1736664993617,,,,,,,,,,,,,0.181158,-0.610723,0.757384,,,,,,
1736664993627,,,,,,,,,,,,,-0.288544,-0.526797,1.134138,,,,,,
1736664993637,,,,,,,,,,,,,-0.085865,-0.560698,1.092692,,,,,,
1736664993647,,,,,,,,,,,,,-0.461932,0.120574,0.765819,,,,,,
1736664993658,,,,,,,,,,,,,-0.350044,-0.189176,0.984499,,,,,,
1736664993667,,,,,,,,,,,,,-0.723306,0.718369,0.159309,,,,,,
1736664993678,,,,,,,,,,,,,-0.502994,0.377436,0.482851,,,,,,
1736664993687,,,,,,,,,,,,,-0.825559,0.910034,-0.389483,,,,,,
1736664993697,,,,,,,,,,,,,-0.718539,0.645964,-0.12406,,,,,,
1736664993707,,,,,,,,,,,,,-0.647613,0.952898,-0.650855,,,,,,
1736664993718,,,,,,,,,,,,,-0.675173,0.764885,-0.497848,,,,,,
1736664993727,,,,,,,,,,,,,-0.408613,0.67556,-0.835577,,,,,,
1736664993738,,,,,,,,,,,,,-0.454149,0.662353,-0.71141,,,,,,
1736664993748,,,,,,,,,,,,,-0.197242,0.208499,-0.8126,,,,,,
1736664993759,,,,,,,,,,,,,-0.273314,0.351111,-0.848455,,,,,,
1736664993768,,,,,,,,,,,,,0.159024,-0.1951,-0.265666,,,,,,
1736664993778,,,,,,,,,,,,,-0.057303,0.004346,-0.595345,,,,,,
1736664993788,,,,,,,,,,,,,0.38903,-0.520195,0.374414,,,,,,
1736664993799,,,,,,,,,,,,,0.274881,-0.288912,0.035629,,,,,,
1736664993809,,,,,,,,,,,,,0.36709,-0.693181,0.623119,,,,,,
1736664993818,,,,,,,,,,,,,0.340382,-0.497768,0.548831,,,,,,
1736664993828,,,,,,,,,,,,,0.377657,-0.574382,0.499271,,,,,,
1736664993838,,,,,,,,,,,,,0.304203,-0.529895,0.579634,,,,,,
1736664993848,,,,,,,,,,,,,0.452611,-0.428739,0.361777,,,,,,
1736664993859,,,,,,,,,,,,,0.345512,-0.424533,0.402324,,,,,,
1736664993869,,,,,,,,,,,,,0.359482,-0.269836,0.117235,,,,,,
1736664993878,,,,,,,,,,,,,0.391808,-0.301626,0.270319,,,,,,
1736664993889,,,,,,,,,,,,,0.17106,-0.162677,-0.067729,,,,,,
1736664993898,,,,,,,,,,,,,-0.00268,0.093862,-0.250798,,,,,,
1736664993909,,,,,,,,,,,,,0.04942,-0.035046,-0.179216,,,,,,
1736664993918,,,,,,,,,,,,,-0.170253,0.172854,-0.20369,,,,,,
1736664993928,,,,,,,,,,,,,-0.088426,0.096416,-0.260754,,,,,,
1736664993938,,,,,,,,,,,,,-0.166124,0.194519,-0.031199,,,,,,
1736664993949,,,,,,,,,,,,,-0.145275,0.15848,-0.132625,,,,,,
1736664993959,,,,,,,,,,,,,-0.114874,0.167318,0.153769,,,,,,
1736664993969,,,,,,,,,,,,,-0.09741,0.156732,0.06582,,,,,,
1736664993979,,,,,,,,,,,,,-0.207763,0.108814,0.198857,,,,,,
1736664993989,,,,,,,,,,,,,-0.122376,0.120838,0.202985,,,,,,
1736664993999,,,,,,,,,,,,,-0.21698,0.13335,0.117401,,,,,,
1736664994009,,,,,,,,,,,,,-0.196233,0.103506,0.158855,,,,,,
1736664994020,,,,,,,,,,,,,-0.149386,0.102211,0.104129,,,,,,
1736664994029,,,,,,,,,,,,,-0.180182,0.087934,0.073968,,,,,,
1736664994039,,,,,,,,,,,,,0.068298,0.028486,0.084334,,,,,,
1736664994049,,,,,,,,,,,,,-0.02244,0.064903,0.141363,,,,,,
1736664994059,,,,,,,,,,,,,0.179951,-0.008619,-0.122504,,,,,,
1736664994070,,,,,,,,,,,,,0.092531,-0.063594,-0.00634,,,,,,
1736664994080,,,,,,,,,,,,,0.247084,0.104032,-0.294747,,,,,,
1736664994089,,,,,,,,,,,,,0.189571,0.02861,-0.21104,,,,,,
1736664994099,,,,,,,,,,,,,0.315436,0.044046,-0.400627,,,,,,
1736664994109,,,,,,,,,,,,,0.223593,0.063843,-0.34877,,,,,,
1736664994120,,,,,,,,,,,,,0.293838,-0.109363,-0.346148,,,,,,
1736664994129,,,,,,,,,,,,,0.248499,-0.017102,-0.406836,,,,,,
1736664991137,,,,,,,,,,,,,,,,-0.013139,-0.133483,-0.735213,,,
1736664991146,,,,,,,,,,,,,,,,-0.013674,-0.137992,-0.7306,,,
1736664991156,,,,,,,,,,,,,,,,-0.019081,-0.144585,-0.725707,,,
1736664991166,,,,,,,,,,,,,,,,-0.02289,-0.150369,-0.721165,,,
1736664991176,,,,,,,,,,,,,,,,-0.029664,-0.157439,-0.716581,,,
1736664991187,,,,,,,,,,,,,,,,-0.034962,-0.163855,-0.712348,,,
1736664991197,,,,,,,,,,,,,,,,-0.041613,-0.169531,-0.708029,,,
1736664991206,,,,,,,,,,,,,,,,-0.047209,-0.174679,-0.704154,,,
1736664991217,,,,,,,,,,,,,,,,-0.052033,-0.178467,-0.700342,,,
1736664991227,,,,,,,,,,,,,,,,-0.05688,-0.182224,-0.697218,,,
1736664991238,,,,,,,,,,,,,,,,-0.060393,-0.185199,-0.694077,,,
1736664991248,,,,,,,,,,,,,,,,-0.064289,-0.188621,-0.691605,,,
1736664991257,,,,,,,,,,,,,,,,-0.067394,-0.191863,-0.689166,,,
1736664991267,,,,,,,,,,,,,,,,-0.070893,-0.195596,-0.687293,,,
1736664991278,,,,,,,,,,,,,,,,-0.073163,-0.199248,-0.685472,,,
1736664991287,,,,,,,,,,,,,,,,-0.075482,-0.202874,-0.683976,,,
1736664991298,,,,,,,,,,,,,,,,-0.076531,-0.204557,-0.682372,,,
1736664991307,,,,,,,,,,,,,,,,-0.077261,-0.206248,-0.680824,,,
1736664991317,,,,,,,,,,,,,,,,-0.078045,-0.205579,-0.679158,,,
1736664991327,,,,,,,,,,,,,,,,-0.078448,-0.205256,-0.677743,,,
1736664991337,,,,,,,,,,,,,,,,-0.079224,-0.203929,-0.676423,,,
1736664991347,,,,,,,,,,,,,,,,-0.080222,-0.202966,-0.675419,,,
1736664991357,,,,,,,,,,,,,,,,-0.080825,-0.202745,-0.674724,,,
1736664991367,,,,,,,,,,,,,,,,-0.082136,-0.20249,-0.674382,,,
1736664991378,,,,,,,,,,,,,,,,-0.08198,-0.203531,-0.674483,,,
1736664991387,,,,,,,,,,,,,,,,-0.082699,-0.204678,-0.674704,,,
1736664991397,,,,,,,,,,,,,,,,-0.08083,-0.206018,-0.675354,,,
1736664991407,,,,,,,,,,,,,,,,-0.079501,-0.207345,-0.675835,,,
1736664991418,,,,,,,,,,,,,,,,-0.076787,-0.209632,-0.676371,,,
1736664991427,,,,,,,,,,,,,,,,-0.074082,-0.211462,-0.676672,,,
1736664991437,,,,,,,,,,,,,,,,-0.07058,-0.214948,-0.676793,,,
1736664991447,,,,,,,,,,,,,,,,-0.067268,-0.217599,-0.676744,,,
1736664991459,,,,,,,,,,,,,,,,-0.062923,-0.222351,-0.676366,,,
1736664991468,,,,,,,,,,,,,,,,-0.05933,-0.226255,-0.675745,,,
1736664991478,,,,,,,,,,,,,,,,-0.055331,-0.232156,-0.674947,,,
1736664991488,,,,,,,,,,,,,,,,-0.051923,-0.236608,-0.673908,,,
1736664991499,,,,,,,,,,,,,,,,-0.049164,-0.242444,-0.672544,,,
1736664991508,,,,,,,,,,,,,,,,-0.046271,-0.247191,-0.671098,,,
1736664991518,,,,,,,,,,,,,,,,-0.044427,-0.249595,-0.669514,,,
1736664991529,,,,,,,,,,,,,,,,-0.042238,-0.252122,-0.667881,,,
1736664991538,,,,,,,,,,,,,,,,-0.0408,-0.250238,-0.666743,,,
1736664991548,,,,,,,,,,,,,,,,-0.039347,-0.249091,-0.665459,,,
1736664991558,,,,,,,,,,,,,,,,-0.038845,-0.245406,-0.664409,,,
1736664991568,,,,,,,,,,,,,,,,-0.038087,-0.242666,-0.663398,,,
1736664991578,,,,,,,,,,,,,,,,-0.038128,-0.239648,-0.662479,,,
1736664991589,,,,,,,,,,,,,,,,-0.038041,-0.23715,-0.661715,,,
1736664991599,,,,,,,,,,,,,,,,-0.037876,-0.23596,-0.660979,,,
1736664991608,,,,,,,,,,,,,,,,-0.03794,-0.234661,-0.660428,,,
1736664991618,,,,,,,,,,,,,,,,-0.037066,-0.234403,-0.659837,,,
1736664991628,,,,,,,,,,,,,,,,-0.036649,-0.2342,-0.659396,,,
1736664991639,,,,,,,,,,,,,,,,-0.035306,-0.233055,-0.658949,,,
1736664991649,,,,,,,,,,,,,,,,-0.034509,-0.232349,-0.65851,,,
1736664991658,,,,,,,,,,,,,,,,-0.033317,-0.231851,-0.657858,,,
1736664991668,,,,,,,,,,,,,,,,-0.032308,-0.231587,-0.657425,,,
1736664991679,,,,,,,,,,,,,,,,-0.02978,-0.232399,-0.656694,,,
1736664991689,,,,,,,,,,,,,,,,-0.027816,-0.233258,-0.656031,,,
1736664991700,,,,,,,,,,,,,,,,-0.023182,-0.232733,-0.655176,,,
1736664991710,,,,,,,,,,,,,,,,-0.019263,-0.232611,-0.654061,,,
1736664991719,,,,,,,,,,,,,,,,-0.014356,-0.230179,-0.652919,,,
1736664991730,,,,,,,,,,,,,,,,-0.009605,-0.228014,-0.651504,,,
1736664991739,,,,,,,,,,,,,,,,-0.006372,-0.22468,-0.649847,,,
1736664991749,,,,,,,,,,,,,,,,-0.003217,-0.221842,-0.64817,,,
1736664991760,,,,,,,,,,,,,,,,-0.001688,-0.219191,-0.64656,,,
1736664991769,,,,,,,,,,,,,,,,-3.08E-4,-0.216783,-0.645191,,,
1736664991780,,,,,,,,,,,,,,,,0.001003,-0.216129,-0.643882,,,
1736664991789,,,,,,,,,,,,,,,,0.001962,-0.215514,-0.642848,,,
1736664991800,,,,,,,,,,,,,,,,0.00413,-0.216516,-0.641428,,,
1736664991809,,,,,,,,,,,,,,,,0.006087,-0.21711,-0.64024,,,
1736664991819,,,,,,,,,,,,,,,,0.009134,-0.219131,-0.638571,,,
1736664991829,,,,,,,,,,,,,,,,0.012083,-0.220386,-0.63687,,,
1736664991839,,,,,,,,,,,,,,,,0.015421,-0.223013,-0.634759,,,
1736664991850,,,,,,,,,,,,,,,,0.018658,-0.224836,-0.632535,,,
1736664991859,,,,,,,,,,,,,,,,0.021734,-0.227246,-0.63002,,,
1736664991869,,,,,,,,,,,,,,,,0.024624,-0.22901,-0.627509,,,
1736664991880,,,,,,,,,,,,,,,,0.027033,-0.229693,-0.625178,,,
1736664991889,,,,,,,,,,,,,,,,0.029009,-0.230831,-0.622661,,,
1736664991900,,,,,,,,,,,,,,,,0.030225,-0.229504,-0.620661,,,
1736664991909,,,,,,,,,,,,,,,,0.031265,-0.228476,-0.618696,,,
1736664991920,,,,,,,,,,,,,,,,0.031117,-0.225176,-0.616968,,,
1736664991930,,,,,,,,,,,,,,,,0.031128,-0.222369,-0.615379,,,
1736664991940,,,,,,,,,,,,,,,,0.029737,-0.218003,-0.614057,,,
1736664991950,,,,,,,,,,,,,,,,0.02853,-0.213962,-0.613018,,,
1736664991960,,,,,,,,,,,,,,,,0.027235,-0.208647,-0.612267,,,
1736664991971,,,,,,,,,,,,,,,,0.02607,-0.204067,-0.612042,,,
1736664991980,,,,,,,,,,,,,,,,0.02529,-0.199614,-0.611559,,,
1736664991991,,,,,,,,,,,,,,,,0.024686,-0.195296,-0.61151,,,
1736664992000,,,,,,,,,,,,,,,,0.02457,-0.192028,-0.611214,,,
1736664992010,,,,,,,,,,,,,,,,0.024564,-0.188712,-0.611326,,,
1736664992020,,,,,,,,,,,,,,,,0.025452,-0.185673,-0.611326,,,
1736664992030,,,,,,,,,,,,,,,,0.026256,-0.182497,-0.611646,,,
1736664992040,,,,,,,,,,,,,,,,0.028335,-0.178905,-0.61207,,,
1736664992050,,,,,,,,,,,,,,,,0.030121,-0.175708,-0.612687,,,
1736664992060,,,,,,,,,,,,,,,,0.033518,-0.17215,-0.613561,,,
1736664992070,,,,,,,,,,,,,,,,0.036119,-0.169062,-0.614605,,,
1736664992080,,,,,,,,,,,,,,,,0.040504,-0.166539,-0.615615,,,
1736664992091,,,,,,,,,,,,,,,,0.043863,-0.16445,-0.616584,,,
1736664992100,,,,,,,,,,,,,,,,0.048483,-0.164068,-0.617234,,,
1736664992110,,,,,,,,,,,,,,,,0.0524,-0.163528,-0.61785,,,
1736664992121,,,,,,,,,,,,,,,,0.056605,-0.16422,-0.617866,,,
1736664992131,,,,,,,,,,,,,,,,0.060502,-0.164659,-0.617754,,,
1736664992141,,,,,,,,,,,,,,,,0.063029,-0.164776,-0.616802,,,
1736664992152,,,,,,,,,,,,,,,,0.065889,-0.165332,-0.615929,,,
1736664992161,,,,,,,,,,,,,,,,0.06616,-0.163423,-0.614573,,,
1736664992171,,,,,,,,,,,,,,,,0.067127,-0.162583,-0.613343,,,
1736664992181,,,,,,,,,,,,,,,,0.065375,-0.158278,-0.611741,,,
1736664992191,,,,,,,,,,,,,,,,0.064665,-0.15527,-0.610406,,,
1736664992201,,,,,,,,,,,,,,,,0.061719,-0.151302,-0.60901,,,
1736664992211,,,,,,,,,,,,,,,,0.05955,-0.148006,-0.607968,,,
1736664992222,,,,,,,,,,,,,,,,0.057771,-0.147441,-0.606955,,,
1736664992232,,,,,,,,,,,,,,,,0.055494,-0.146438,-0.606366,,,
1736664992242,,,,,,,,,,,,,,,,0.056212,-0.148441,-0.605659,,,
1736664992252,,,,,,,,,,,,,,,,0.055913,-0.149778,-0.605095,,,
1736664992261,,,,,,,,,,,,,,,,0.058288,-0.153116,-0.604186,,,
1736664992272,,,,,,,,,,,,,,,,0.059816,-0.15534,-0.60319,,,
1736664992282,,,,,,,,,,,,,,,,0.061552,-0.159845,-0.60171,,,
1736664992291,,,,,,,,,,,,,,,,0.063166,-0.163584,-0.600014,,,
1736664992301,,,,,,,,,,,,,,,,0.063882,-0.168247,-0.598278,,,
1736664992311,,,,,,,,,,,,,,,,0.064825,-0.172273,-0.596142,,,
1736664992321,,,,,,,,,,,,,,,,0.064326,-0.176258,-0.594148,,,
1736664992331,,,,,,,,,,,,,,,,0.064489,-0.179883,-0.591961,,,
1736664992341,,,,,,,,,,,,,,,,0.062764,-0.181749,-0.590153,,,
1736664992351,,,,,,,,,,,,,,,,0.061808,-0.183857,-0.588133,,,
1736664992361,,,,,,,,,,,,,,,,0.059191,-0.183092,-0.586785,,,
1736664992372,,,,,,,,,,,,,,,,0.05692,-0.183163,-0.585645,,,
1736664992383,,,,,,,,,,,,,,,,0.054526,-0.181179,-0.58498,,,
1736664992392,,,,,,,,,,,,,,,,0.051941,-0.179504,-0.584661,,,
1736664992402,,,,,,,,,,,,,,,,0.051286,-0.177786,-0.585176,,,
1736664992412,,,,,,,,,,,,,,,,0.049961,-0.176208,-0.585786,,,
1736664992423,,,,,,,,,,,,,,,,0.051717,-0.17564,-0.586899,,,
1736664992432,,,,,,,,,,,,,,,,0.052502,-0.174616,-0.588039,,,
1736664992442,,,,,,,,,,,,,,,,0.056149,-0.175599,-0.589231,,,
1736664992452,,,,,,,,,,,,,,,,0.059002,-0.175961,-0.590165,,,
1736664992463,,,,,,,,,,,,,,,,0.063152,-0.177515,-0.591025,,,
1736664992472,,,,,,,,,,,,,,,,0.066838,-0.178907,-0.591527,,,
1736664992483,,,,,,,,,,,,,,,,0.070165,-0.180722,-0.591668,,,
1736664992492,,,,,,,,,,,,,,,,0.07317,-0.182511,-0.591478,,,
1736664992502,,,,,,,,,,,,,,,,0.074421,-0.184045,-0.590997,,,
1736664992512,,,,,,,,,,,,,,,,0.075896,-0.185736,-0.590353,,,
1736664992522,,,,,,,,,,,,,,,,0.07483,-0.187023,-0.589434,,,
1736664992532,,,,,,,,,,,,,,,,0.07448,-0.188005,-0.588634,,,
1736664992542,,,,,,,,,,,,,,,,0.072322,-0.189197,-0.587481,,,
1736664992552,,,,,,,,,,,,,,,,0.070757,-0.19006,-0.586677,,,
1736664992562,,,,,,,,,,,,,,,,0.068594,-0.190363,-0.585807,,,
1736664992572,,,,,,,,,,,,,,,,0.066954,-0.190577,-0.585016,,,
1736664992582,,,,,,,,,,,,,,,,0.065635,-0.189139,-0.584464,,,
1736664992592,,,,,,,,,,,,,,,,0.064423,-0.188316,-0.584034,,,
1736664992604,,,,,,,,,,,,,,,,0.063746,-0.186103,-0.583716,,,
1736664992613,,,,,,,,,,,,,,,,0.063028,-0.184225,-0.583505,,,
1736664992623,,,,,,,,,,,,,,,,0.062476,-0.181929,-0.583492,,,
1736664992634,,,,,,,,,,,,,,,,0.061858,-0.180159,-0.58339,,,
1736664992643,,,,,,,,,,,,,,,,0.061409,-0.178169,-0.583329,,,
1736664992653,,,,,,,,,,,,,,,,0.060831,-0.176496,-0.583418,,,
1736664992664,,,,,,,,,,,,,,,,0.060217,-0.174784,-0.583102,,,
1736664992673,,,,,,,,,,,,,,,,0.059589,-0.17344,-0.583138,,,
1736664992683,,,,,,,,,,,,,,,,0.05977,-0.17312,-0.582752,,,
1736664992694,,,,,,,,,,,,,,,,0.05952,-0.172444,-0.58253,,,
1736664992703,,,,,,,,,,,,,,,,0.061207,-0.172347,-0.582189,,,
1736664992713,,,,,,,,,,,,,,,,0.062261,-0.172381,-0.581765,,,
1736664992723,,,,,,,,,,,,,,,,0.065223,-0.172807,-0.581215,,,
1736664992733,,,,,,,,,,,,,,,,0.067823,-0.172482,-0.580499,,,
1736664992743,,,,,,,,,,,,,,,,0.071093,-0.173748,-0.579381,,,
1736664992753,,,,,,,,,,,,,,,,0.074094,-0.17441,-0.578246,,,
1736664992763,,,,,,,,,,,,,,,,0.077379,-0.176566,-0.576785,,,
1736664992773,,,,,,,,,,,,,,,,0.080396,-0.177689,-0.575113,,,
1736664992783,,,,,,,,,,,,,,,,0.082711,-0.178014,-0.573173,,,
1736664992793,,,,,,,,,,,,,,,,0.085245,-0.178414,-0.571227,,,
1736664992803,,,,,,,,,,,,,,,,0.084761,-0.175822,-0.568915,,,
1736664992813,,,,,,,,,,,,,,,,0.085412,-0.173741,-0.566561,,,
1736664992824,,,,,,,,,,,,,,,,0.08207,-0.171972,-0.564239,,,
1736664992834,,,,,,,,,,,,,,,,0.080048,-0.170183,-0.562033,,,
1736664992845,,,,,,,,,,,,,,,,0.075791,-0.169403,-0.560166,,,
1736664992854,,,,,,,,,,,,,,,,0.072375,-0.168792,-0.558661,,,
1736664992865,,,,,,,,,,,,,,,,0.068906,-0.167618,-0.557467,,,
1736664992874,,,,,,,,,,,,,,,,0.065834,-0.167021,-0.556525,,,
1736664992884,,,,,,,,,,,,,,,,0.063576,-0.164234,-0.555799,,,
1736664992895,,,,,,,,,,,,,,,,0.061493,-0.16224,-0.555202,,,
1736664992904,,,,,,,,,,,,,,,,0.059062,-0.1603,-0.554522,,,
1736664992914,,,,,,,,,,,,,,,,0.056846,-0.158409,-0.554113,,,
1736664992924,,,,,,,,,,,,,,,,0.054176,-0.157565,-0.553499,,,
1736664992935,,,,,,,,,,,,,,,,0.051517,-0.156831,-0.553338,,,
1736664992944,,,,,,,,,,,,,,,,0.049734,-0.155356,-0.55325,,,
1736664992954,,,,,,,,,,,,,,,,0.047561,-0.154381,-0.553422,,,
1736664992964,,,,,,,,,,,,,,,,0.047467,-0.151875,-0.55357,,,
1736664992975,,,,,,,,,,,,,,,,0.046727,-0.150042,-0.55416,,,
1736664992985,,,,,,,,,,,,,,,,0.048116,-0.147208,-0.554583,,,
1736664992994,,,,,,,,,,,,,,,,0.048854,-0.144782,-0.555008,,,
1736664993004,,,,,,,,,,,,,,,,0.051449,-0.142412,-0.555795,,,
1736664993014,,,,,,,,,,,,,,,,0.053414,-0.140225,-0.556421,,,
1736664993025,,,,,,,,,,,,,,,,0.05685,-0.138108,-0.557166,,,
1736664993034,,,,,,,,,,,,,,,,0.059845,-0.136135,-0.557651,,,
1736664993044,,,,,,,,,,,,,,,,0.063367,-0.13349,-0.558325,,,
1736664993056,,,,,,,,,,,,,,,,0.066738,-0.131243,-0.558577,,,
1736664993065,,,,,,,,,,,,,,,,0.069425,-0.128223,-0.558561,,,
1736664993075,,,,,,,,,,,,,,,,0.072335,-0.125689,-0.558634,,,
1736664993086,,,,,,,,,,,,,,,,0.074086,-0.122467,-0.558111,,,
1736664993095,,,,,,,,,,,,,,,,0.075925,-0.119667,-0.557699,,,
1736664993105,,,,,,,,,,,,,,,,0.076958,-0.116583,-0.557111,,,
1736664993115,,,,,,,,,,,,,,,,0.077985,-0.11416,-0.556633,,,
1736664993125,,,,,,,,,,,,,,,,0.078788,-0.112383,-0.555826,,,
1736664993136,,,,,,,,,,,,,,,,0.079312,-0.11087,-0.555149,,,
1736664993145,,,,,,,,,,,,,,,,0.08038,-0.111151,-0.554301,,,
1736664993156,,,,,,,,,,,,,,,,0.081333,-0.110936,-0.553459,,,
1736664993165,,,,,,,,,,,,,,,,0.083151,-0.112057,-0.552364,,,
1736664993175,,,,,,,,,,,,,,,,0.084811,-0.112616,-0.551282,,,
1736664993185,,,,,,,,,,,,,,,,0.086929,-0.113401,-0.549715,,,
1736664993196,,,,,,,,,,,,,,,,0.088903,-0.113845,-0.548162,,,
1736664993205,,,,,,,,,,,,,,,,0.090072,-0.114114,-0.546396,,,
1736664993215,,,,,,,,,,,,,,,,0.091398,-0.114419,-0.544553,,,
1736664993225,,,,,,,,,,,,,,,,0.090535,-0.114963,-0.542691,,,
1736664993235,,,,,,,,,,,,,,,,0.090343,-0.11519,-0.540817,,,
1736664993246,,,,,,,,,,,,,,,,0.087943,-0.11663,-0.538882,,,
1736664993255,,,,,,,,,,,,,,,,0.086329,-0.117812,-0.537005,,,
1736664993265,,,,,,,,,,,,,,,,0.08369,-0.118796,-0.535353,,,
1736664993275,,,,,,,,,,,,,,,,0.081634,-0.119926,-0.533914,,,
1736664993287,,,,,,,,,,,,,,,,0.079254,-0.120616,-0.532593,,,
1736664993296,,,,,,,,,,,,,,,,0.077139,-0.121586,-0.531473,,,
1736664993307,,,,,,,,,,,,,,,,0.074752,-0.122506,-0.530485,,,
1736664993317,,,,,,,,,,,,,,,,0.072495,-0.123391,-0.529634,,,
1736664993326,,,,,,,,,,,,,,,,0.070371,-0.1252,-0.52916,,,
1736664993336,,,,,,,,,,,,,,,,0.068204,-0.126744,-0.528916,,,
1736664993347,,,,,,,,,,,,,,,,0.066818,-0.129231,-0.528925,,,
1736664993356,,,,,,,,,,,,,,,,0.065326,-0.131269,-0.529025,,,
1736664993366,,,,,,,,,,,,,,,,0.065125,-0.132813,-0.529274,,,
1736664993377,,,,,,,,,,,,,,,,0.064544,-0.134385,-0.529628,,,
1736664993387,,,,,,,,,,,,,,,,0.065495,-0.134191,-0.530033,,,
1736664993396,,,,,,,,,,,,,,,,0.06588,-0.134475,-0.530428,,,
1736664993406,,,,,,,,,,,,,,,,0.066815,-0.133618,-0.530815,,,
1736664993416,,,,,,,,,,,,,,,,0.067392,-0.133162,-0.531299,,,
1736664993426,,,,,,,,,,,,,,,,0.068325,-0.132877,-0.531573,,,
1736664993436,,,,,,,,,,,,,,,,0.068791,-0.13266,-0.531899,,,
1736664993446,,,,,,,,,,,,,,,,0.070314,-0.132681,-0.532149,,,
1736664993457,,,,,,,,,,,,,,,,0.071447,-0.132664,-0.532394,,,
1736664993466,,,,,,,,,,,,,,,,0.073431,-0.132254,-0.532376,,,
1736664993477,,,,,,,,,,,,,,,,0.075107,-0.131935,-0.532443,,,
1736664993486,,,,,,,,,,,,,,,,0.076773,-0.131463,-0.532328,,,
1736664993497,,,,,,,,,,,,,,,,0.078441,-0.131012,-0.531973,,,
1736664993506,,,,,,,,,,,,,,,,0.079269,-0.131603,-0.531586,,,
1736664993518,,,,,,,,,,,,,,,,0.080333,-0.131615,-0.531147,,,
1736664993527,,,,,,,,,,,,,,,,0.080111,-0.132551,-0.530664,,,
1736664993537,,,,,,,,,,,,,,,,0.080399,-0.133135,-0.530106,,,
1736664993548,,,,,,,,,,,,,,,,0.079097,-0.133817,-0.529857,,,
1736664993557,,,,,,,,,,,,,,,,0.078379,-0.134365,-0.529318,,,
1736664993568,,,,,,,,,,,,,,,,0.07596,-0.13336,-0.528934,,,
1736664993577,,,,,,,,,,,,,,,,0.074341,-0.132914,-0.528768,,,
1736664993587,,,,,,,,,,,,,,,,0.070734,-0.130436,-0.528539,,,
1736664993597,,,,,,,,,,,,,,,,0.067905,-0.128665,-0.528474,,,
1736664993608,,,,,,,,,,,,,,,,0.064197,-0.125325,-0.528554,,,
1736664993618,,,,,,,,,,,,,,,,0.060814,-0.123093,-0.529104,,,
1736664993627,,,,,,,,,,,,,,,,0.058407,-0.119786,-0.52984,,,
1736664993638,,,,,,,,,,,,,,,,0.055638,-0.117499,-0.530939,,,
1736664993647,,,,,,,,,,,,,,,,0.05585,-0.11637,-0.532378,,,
1736664993657,,,,,,,,,,,,,,,,0.055033,-0.115154,-0.533913,,,
1736664993667,,,,,,,,,,,,,,,,0.058409,-0.115775,-0.535601,,,
1736664993677,,,,,,,,,,,,,,,,0.060369,-0.116222,-0.537078,,,
1736664993687,,,,,,,,,,,,,,,,0.065543,-0.117643,-0.538204,,,
1736664993697,,,,,,,,,,,,,,,,0.069641,-0.118396,-0.539147,,,
1736664993707,,,,,,,,,,,,,,,,0.075252,-0.120369,-0.539454,,,
1736664993717,,,,,,,,,,,,,,,,0.080219,-0.121427,-0.539293,,,
1736664993728,,,,,,,,,,,,,,,,0.084647,-0.123225,-0.538653,,,
1736664993738,,,,,,,,,,,,,,,,0.088839,-0.12452,-0.537761,,,
1736664993748,,,,,,,,,,,,,,,,0.09085,-0.125371,-0.536348,,,
1736664993758,,,,,,,,,,,,,,,,0.093324,-0.126022,-0.534773,,,
1736664993769,,,,,,,,,,,,,,,,0.092398,-0.125771,-0.533163,,,
1736664993778,,,,,,,,,,,,,,,,0.092702,-0.125293,-0.531309,,,
1736664993789,,,,,,,,,,,,,,,,0.089819,-0.123863,-0.530082,,,
1736664993798,,,,,,,,,,,,,,,,0.088101,-0.122874,-0.528809,,,
1736664993808,,,,,,,,,,,,,,,,0.084668,-0.12094,-0.527892,,,
1736664993818,,,,,,,,,,,,,,,,0.081943,-0.119731,-0.527071,,,
1736664993828,,,,,,,,,,,,,,,,0.078927,-0.118702,-0.526853,,,
1736664993838,,,,,,,,,,,,,,,,0.076227,-0.117727,-0.52664,,,
1736664993848,,,,,,,,,,,,,,,,0.073715,-0.117728,-0.526537,,,
1736664993858,,,,,,,,,,,,,,,,0.071457,-0.117475,-0.526587,,,
1736664993868,,,,,,,,,,,,,,,,0.069821,-0.117998,-0.526594,,,
1736664993879,,,,,,,,,,,,,,,,0.067994,-0.118613,-0.526898,,,
1736664993888,,,,,,,,,,,,,,,,0.067144,-0.119253,-0.527211,,,
1736664993898,,,,,,,,,,,,,,,,0.067587,-0.120111,-0.52751,,,
1736664993908,,,,,,,,,,,,,,,,0.067469,-0.120662,-0.527876,,,
1736664993918,,,,,,,,,,,,,,,,0.068523,-0.120888,-0.52828,,,
1736664993929,,,,,,,,,,,,,,,,0.069209,-0.121081,-0.528483,,,
1736664993938,,,,,,,,,,,,,,,,0.070239,-0.120947,-0.528569,,,
1736664993948,,,,,,,,,,,,,,,,0.071174,-0.120779,-0.528715,,,
1736664993958,,,,,,,,,,,,,,,,0.071915,-0.120445,-0.528843,,,
1736664993970,,,,,,,,,,,,,,,,0.072648,-0.120236,-0.528783,,,
1736664993980,,,,,,,,,,,,,,,,0.073373,-0.119536,-0.528754,,,
1736664993989,,,,,,,,,,,,,,,,0.074021,-0.119201,-0.52871,,,
1736664994000,,,,,,,,,,,,,,,,0.074974,-0.118701,-0.528442,,,
1736664994009,,,,,,,,,,,,,,,,0.075862,-0.118178,-0.528318,,,
1736664994019,,,,,,,,,,,,,,,,0.076794,-0.117798,-0.528033,,,
1736664994030,,,,,,,,,,,,,,,,0.077806,-0.117259,-0.52757,,,
1736664994040,,,,,,,,,,,,,,,,0.078182,-0.117401,-0.5271,,,
1736664994050,,,,,,,,,,,,,,,,0.078768,-0.117411,-0.526613,,,
1736664994060,,,,,,,,,,,,,,,,0.078847,-0.11826,-0.526368,,,
1736664994069,,,,,,,,,,,,,,,,0.078736,-0.118689,-0.526018,,,
1736664994079,,,,,,,,,,,,,,,,0.079018,-0.120367,-0.525732,,,
1736664994090,,,,,,,,,,,,,,,,0.079041,-0.121592,-0.525432,,,
1736664994099,,,,,,,,,,,,,,,,0.078924,-0.123414,-0.525039,,,
1736664994110,,,,,,,,,,,,,,,,0.078949,-0.124847,-0.524647,,,
1736664994119,,,,,,,,,,,,,,,,0.078223,-0.125934,-0.524229,,,
1736664994129,,,,,,,,,,,,,,,,0.077937,-0.126977,-0.523748,,,
1736664991229,,,,,,,,,,,,,,,,,,,168.0,,
1736664991424,,,,,,,,,,,,,,,,,,,181.0,,
1736664991627,,,,,,,,,,,,,,,,,,,181.0,,
1736664991831,,,,,,,,,,,,,,,,,,,162.0,,
1736664992025,,,,,,,,,,,,,,,,,,,172.0,,
1736664992224,,,,,,,,,,,,,,,,,,,246.0,,
1736664992424,,,,,,,,,,,,,,,,,,,271.0,,
1736664992629,,,,,,,,,,,,,,,,,,,341.0,,
1736664992826,,,,,,,,,,,,,,,,,,,260.0,,
1736664993025,,,,,,,,,,,,,,,,,,,132.0,,
1736664993227,,,,,,,,,,,,,,,,,,,124.0,,
1736664993424,,,,,,,,,,,,,,,,,,,126.0,,
1736664993626,,,,,,,,,,,,,,,,,,,126.0,,
1736664993825,,,,,,,,,,,,,,,,,,,126.0,,
1736664994027,,,,,,,,,,,,,,,,,,,125.0,,
1736665000146,0.94905007,3.4030502,8.319,,,,,,,,,,,,,,,,,,
1736665000156,0.93000007,3.3820503,8.254951,,,,,,,,,,,,,,,,,,
1736665000167,0.96300006,3.3600001,8.254951,,,,,,,,,,,,,,,,,,
1736665000176,0.99195004,3.3700502,8.335951,,,,,,,,,,,,,,,,,,
1736665000186,1.0489501,3.423,8.47305,,,,,,,,,,,,,,,,,,
1736665000196,1.1209501,3.42705,8.51805,,,,,,,,,,,,,,,,,,
1736665000206,1.059,3.3990002,8.47995,,,,,,,,,,,,,,,,,,
1736665000216,0.93900007,3.3409503,8.42205,,,,,,,,,,,,,,,,,,
1736665000227,0.87000006,3.3409503,8.500951,,,,,,,,,,,,,,,,,,
1736665000237,0.87900007,3.39105,8.63805,,,,,,,,,,,,,,,,,,
1736665000247,0.88605005,3.4420502,8.676001,,,,,,,,,,,,,,,,,,
1736665000256,0.93900007,3.4780502,8.628,,,,,,,,,,,,,,,,,,
1736665000267,1.0009501,3.5040002,8.535001,,,,,,,,,,,,,,,,,,
1736665000276,1.0350001,3.525,8.42205,,,,,,,,,,,,,,,,,,
1736665000286,0.99195004,3.51795,8.334001,,,,,,,,,,,,,,,,,,
1736665000298,0.88395005,3.5299501,8.334001,,,,,,,,,,,,,,,,,,
1736665000307,0.85095006,3.525,8.442,,,,,,,,,,,,,,,,,,
1736665000317,0.87900007,3.4729502,8.590051,,,,,,,,,,,,,,,,,,
1736665000327,0.94395006,3.4110003,8.71905,,,,,,,,,,,,,,,,,,
1736665000338,1.04205,3.3649502,8.767051,,,,,,,,,,,,,,,,,,
1736665000347,1.09695,3.3319502,8.73795,,,,,,,,,,,,,,,,,,
1736665000358,1.11405,3.32205,8.632951,,,,,,,,,,,,,,,,,,
1736665000367,1.0849501,3.348,8.544001,,,,,,,,,,,,,,,,,,
1736665000377,1.02795,3.3790503,8.475,,,,,,,,,,,,,,,,,,
1736665000387,0.97005004,3.3990002,8.406,,,,,,,,,,,,,,,,,,
1736665000398,0.95595,3.4009502,8.379001,,,,,,,,,,,,,,,,,,
1736665000407,0.9990001,3.41805,8.413051,,,,,,,,,,,,,,,,,,
1736665000417,1.06605,3.4320002,8.470051,,,,,,,,,,,,,,,,,,
1736665000427,1.07595,3.4300501,8.443951,,,,,,,,,,,,,,,,,,
1736665000437,1.023,3.3790503,8.382,,,,,,,,,,,,,,,,,,
1736665000447,1.0180501,3.348,8.3550005,,,,,,,,,,,,,,,,,,
1736665000458,1.0159501,3.35505,8.38605,,,,,,,,,,,,,,,,,,
1736665000467,1.056,3.3960001,8.427,,,,,,,,,,,,,,,,,,
1736665000478,1.0159501,3.423,8.437051,,,,,,,,,,,,,,,,,,
1736665000487,0.95595,3.4249501,8.4529505,,,,,,,,,,,,,,,,,,
1736665000497,0.93405,3.4369502,8.49405,,,,,,,,,,,,,,,,,,
1736665000508,0.91005003,3.456,8.53995,,,,,,,,,,,,,,,,,,
1736665000518,0.94200003,3.4780502,8.611951,,,,,,,,,,,,,,,,,,
1736665000529,0.93705004,3.48495,8.63805,,,,,,,,,,,,,,,,,,
1736665000538,0.93405,3.44895,8.614051,,,,,,,,,,,,,,,,,,
1736665000549,0.94395006,3.4030502,8.607,,,,,,,,,,,,,,,,,,
1736665000559,0.9580501,3.3700502,8.604,,,,,,,,,,,,,,,,,,
1736665000568,0.97695005,3.3409503,8.58495,,,,,,,,,,,,,,,,,,
1736665000579,0.98700005,3.3700502,8.556001,,,,,,,,,,,,,,,,,,
1736665000588,0.99705005,3.38895,8.47995,,,,,,,,,,,,,,,,,,
1736665000598,0.9889501,3.3790503,8.35305,,,,,,,,,,,,,,,,,,
1736665000608,0.99405,3.42,8.295,,,,,,,,,,,,,,,,,,
1736665000619,1.0009501,3.42705,8.25,,,,,,,,,,,,,,,,,,
1736665000628,0.98505,3.4249501,8.24505,,,,,,,,,,,,,,,,,,
1736665000638,0.97005004,3.3750002,8.31,,,,,,,,,,,,,,,,,,
1736665000648,0.96495,3.3649502,8.413051,,,,,,,,,,,,,,,,,,
1736665000659,0.99195004,3.351,8.51595,,,,,,,,,,,,,,,,,,
1736665000668,1.0180501,3.3289502,8.575951,,,,,,,,,,,,,,,,,,
1736665000678,1.03005,3.3460503,8.57295,,,,,,,,,,,,,,,,,,
1736665000688,0.97305006,3.3649502,8.547,,,,,,,,,,,,,,,,,,
1736665000698,0.90105003,3.3409503,8.532001,,,,,,,,,,,,,,,,,,
1736665000708,0.855,3.3430502,8.532001,,,,,,,,,,,,,,,,,,
1736665000719,0.86295,3.387,8.568001,,,,,,,,,,,,,,,,,,
1736665000728,0.9580501,3.41805,8.614051,,,,,,,,,,,,,,,,,,
1736665000738,1.03695,3.4009502,8.571,,,,,,,,,,,,,,,,,,
1736665000749,1.023,3.3460503,8.455951,,,,,,,,,,,,,,,,,,
1736665000760,0.98505,3.279,8.406,,,,,,,,,,,,,,,,,,
1736665000770,0.93900007,3.2689502,8.413051,,,,,,,,,,,,,,,,,,
1736665000779,0.906,3.24795,8.48205,,,,,,,,,,,,,,,,,,
1736665000789,0.94905007,3.31695,8.575951,,,,,,,,,,,,,,,,,,
1736665000799,1.011,3.3700502,8.595,,,,,,,,,,,,,,,,,,
1736665000809,0.9990001,3.4030502,8.578051,,,,,,,,,,,,,,,,,,
1736665000819,0.99195004,3.4249501,8.568001,,,,,,,,,,,,,,,,,,
