timestamp,acc_x,acc_y,acc_z,mag_x,mag_y,mag_z,gra_x,gra_y,gra_z,gyr_x,gyr_y,gyr_z,linear_x,linear_y,linear_z,rot_x,rot_y,rot_z,light,pressure,proximity
1736676452286,-2.4070501,4.5019503,8.0130005,,,,,,,,,,,,,,,,,,
1736676452296,-2.3500502,4.5430503,7.9150505,,,,,,,,,,,,,,,,,,
1736676452306,-2.2440002,4.5100503,7.9669504,,,,,,,,,,,,,,,,,,
1736676452316,-2.11995,4.43295,8.002951,,,,,,,,,,,,,,,,,,
1736676452326,-2.01705,4.38,8.07495,,,,,,,,,,,,,,,,,,
1736676452336,-1.9039501,4.3489504,8.214001,,,,,,,,,,,,,,,,,,
1736676452346,-1.7920501,4.2840004,8.427,,,,,,,,,,,,,,,,,,
1736676452356,-1.6620001,4.24095,8.635051,,,,,,,,,,,,,,,,,,
1736676452366,-1.5090001,4.1599503,8.82705,,,,,,,,,,,,,,,,,,
1736676452376,-1.3440001,4.05,9.078,,,,,,,,,,,,,,,,,,
1736676452387,-1.1910001,3.9589503,9.27,,,,,,,,,,,,,,,,,,
1736676452397,-1.1689501,3.93705,9.282001,,,,,,,,,,,,,,,,,,
1736676452406,-1.2870001,3.96795,9.25605,,,,,,,,,,,,,,,,,,
1736676452416,-1.45905,3.9439502,9.10995,,,,,,,,,,,,,,,,,,
1736676452427,-1.62405,3.90405,9.0379505,,,,,,,,,,,,,,,,,,
1736676452437,-1.7509501,3.9109502,9.05895,,,,,,,,,,,,,,,,,,
1736676452328,,,,-19.5,-34.6875,-26.04375,,,,,,,,,,,,,,,
1736676452348,,,,-20.1,-34.5,-25.2,,,,,,,,,,,,,,,
1736676452369,,,,-20.643751,-34.143753,-24.843752,,,,,,,,,,,,,,,
1736676452389,,,,-20.94375,-33.9,-24.300001,,,,,,,,,,,,,,,
1736676452409,,,,-21.65625,-33.956253,-23.8125,,,,,,,,,,,,,,,
1736676452430,,,,-21.712502,-33.84375,-24.112501,,,,,,,,,,,,,,,
1736676452296,,,,,,,-2.287137,4.543065,8.384507,,,,,,,,,,,,
1736676452306,,,,,,,-2.241773,4.530594,8.403485,,,,,,,,,,,,
1736676452316,,,,,,,-2.172028,4.513088,8.431178,,,,,,,,,,,,
1736676452326,,,,,,,-2.113813,4.498545,8.453718,,,,,,,,,,,,
1736676452336,,,,,,,-2.024596,4.465447,8.493013,,,,,,,,,,,,
1736676452346,,,,,,,-1.950724,4.438874,8.524177,,,,,,,,,,,,
1736676452356,,,,,,,-1.843727,4.38657,8.57492,,,,,,,,,,,,
1736676452366,,,,,,,-1.760669,4.346068,8.612918,,,,,,,,,,,,
1736676452376,,,,,,,-1.64763,4.274075,8.671112,,,,,,,,,,,,
1736676452387,,,,,,,-1.570677,4.222916,8.710365,,,,,,,,,,,,
1736676452397,,,,,,,-1.481363,4.151155,8.760362,,,,,,,,,,,,
1736676452406,,,,,,,-1.412949,4.090342,8.800176,,,,,,,,,,,,
1736676452416,,,,,,,-1.382595,4.040026,8.828196,,,,,,,,,,,,
1736676452428,,,,,,,-1.344112,3.994315,8.854897,,,,,,,,,,,,
1736676452438,,,,,,,-1.348646,3.953349,8.872577,,,,,,,,,,,,
1736676452306,,,,,,,,,,-0.2127125,-0.8283,-0.1573,,,,,,,,,
1736676452316,,,,,,,,,,-0.265925,-0.88577497,-0.1584,,,,,,,,,
1736676452326,,,,,,,,,,-0.3106125,-0.9475125,-0.1700875,,,,,,,,,
1736676452336,,,,,,,,,,-0.34155,-1.0049875,-0.1860375,,,,,,,,,
1736676452346,,,,,,,,,,-0.366025,-1.0550375,-0.20405,,,,,,,,,
1736676452356,,,,,,,,,,-0.3851375,-1.0858375,-0.2222,,,,,,,,,
1736676452366,,,,,,,,,,-0.4021875,-1.065625,-0.228525,,,,,,,,,
1736676452376,,,,,,,,,,-0.412775,-0.9805125,-0.2253625,,,,,,,,,
1736676452387,,,,,,,,,,-0.40535,-0.852775,-0.231825,,,,,,,,,
1736676452397,,,,,,,,,,-0.37661248,-0.7090875,-0.2424125,,,,,,,,,
1736676452406,,,,,,,,,,-0.3383875,-0.573925,-0.246675,,,,,,,,,
1736676452416,,,,,,,,,,-0.3053875,-0.4675,-0.23815,,,,,,,,,
1736676452428,,,,,,,,,,-0.284075,-0.4005375,-0.22,,,,,,,,,
1736676452438,,,,,,,,,,-0.27335,-0.394075,-0.1934625,,,,,,,,,
1736676452306,,,,,,,,,,,,,0.121503,-0.097196,-0.399634,,,,,,
1736676452316,,,,,,,,,,,,,-0.072744,-0.003074,-0.463242,,,,,,
1736676452326,,,,,,,,,,,,,0.209029,-0.148948,-0.23917,,,,,,
1736676452336,,,,,,,,,,,,,0.00728,-0.084724,-0.417333,,,,,,
1736676452346,,,,,,,,,,,,,0.287763,-0.19702,0.111765,,,,,,
1736676452356,,,,,,,,,,,,,0.051475,-0.101618,-0.147279,,,,,,
1736676452366,,,,,,,,,,,,,0.416148,-0.295757,0.465968,,,,,,
1736676452376,,,,,,,,,,,,,0.137903,-0.113626,0.156373,,,,,,
1736676452387,,,,,,,,,,,,,0.400939,-0.285137,0.572034,,,,,,
1736676452397,,,,,,,,,,,,,0.290076,-0.191826,0.510067,,,,,,
1736676452406,,,,,,,,,,,,,-0.046496,-0.14538,0.309835,,,,,,
1736676452416,,,,,,,,,,,,,0.095537,-0.07112,0.427866,,,,,,
1736676452427,,,,,,,,,,,,,-0.407436,-0.082873,0.204834,,,,,,
1736676452437,,,,,,,,,,,,,-0.276005,-0.049089,0.165606,,,,,,
1736676452316,,,,,,,,,,,,,,,,0.0,0.0,0.0,,,
1736676452326,,,,,,,,,,,,,,,,0.126325,-0.222467,-0.96151,,,
1736676452336,,,,,,,,,,,,,,,,0.127892,-0.229938,-0.947426,,,
1736676452346,,,,,,,,,,,,,,,,0.121115,-0.223951,-0.950187,,,
1736676452356,,,,,,,,,,,,,,,,0.120037,-0.225744,-0.947388,,,
1736676452366,,,,,,,,,,,,,,,,0.112947,-0.220714,-0.948338,,,
1736676452376,,,,,,,,,,,,,,,,0.110363,-0.219065,-0.945497,,,
1736676452387,,,,,,,,,,,,,,,,0.105521,-0.215552,-0.943865,,,
1736676452397,,,,,,,,,,,,,,,,0.10248,-0.212474,-0.94216,,,
1736676452406,,,,,,,,,,,,,,,,0.102359,-0.209752,-0.940772,,,
1736676452416,,,,,,,,,,,,,,,,0.101668,-0.207232,-0.939382,,,
1736676452427,,,,,,,,,,,,,,,,0.10393,-0.204641,-0.938286,,,
1736676452437,,,,,,,,,,,,,,,,0.105329,-0.202344,-0.937124,,,
1736676452379,,,,,,,,,,,,,,,,,,,358.0,,
1736676452379,,,,,,,,,,,,,,,,,,,,,5.0
1736676452379,,,,,,,,,,,,,,,,,,,,,5.0
1736676452448,-1.7490001,3.9799502,9.10995,,,,,,,,,,,,,,,,,,
1736676452458,-1.6290001,4.00005,9.0709505,,,,,,,,,,,,,,,,,,
1736676452467,-1.4760001,3.9559503,9.01395,,,,,,,,,,,,,,,,,,
1736676452477,-1.3219501,3.8770502,9.1050005,,,,,,,,,,,,,,,,,,
1736676452487,-1.11705,3.79605,9.057,,,,,,,,,,,,,,,,,,
1736676452497,-0.96795005,3.6810002,8.929951,,,,,,,,,,,,,,,,,,
1736676452507,-0.80805004,3.55905,8.80095,,,,,,,,,,,,,,,,,,
1736676452518,-0.67800003,3.5659502,8.86995,,,,,,,,,,,,,,,,,,
1736676452527,-0.73095006,3.7069502,9.085951,,,,,,,,,,,,,,,,,,
1736676452537,-0.81705004,3.9060001,9.19095,,,,,,,,,,,,,,,,,,
1736676452548,-0.82005006,4.026,9.049951,,,,,,,,,,,,,,,,,,
1736676452557,-0.79605,4.038,8.74995,,,,,,,,,,,,,,,,,,
1736676452568,-0.777,3.9850502,8.596951,,,,,,,,,,,,,,,,,,
1736676452578,-0.70500004,3.966,8.616,,,,,,,,,,,,,,,,,,
1736676452588,-0.58005005,4.0279503,8.635051,,,,,,,,,,,,,,,,,,
1736676452598,-0.492,4.0950003,8.647051,,,,,,,,,,,,,,,,,,
1736676452608,-0.42705002,4.0810504,8.53995,,,,,,,,,,,,,,,,,,
1736676452617,-0.37395,4.00395,8.688001,,,,,,,,,,,,,,,,,,
1736676452627,-0.279,3.8419502,8.917951,,,,,,,,,,,,,,,,,,
1736676452637,-0.21195,3.73095,8.944051,,,,,,,,,,,,,,,,,,
1736676452647,-0.17595,3.6670501,8.98305,,,,,,,,,,,,,,,,,,
1736676452657,-0.14400001,3.6739502,9.13305,,,,,,,,,,,,,,,,,,
1736676452668,-0.123,3.7120502,9.22395,,,,,,,,,,,,,,,,,,
1736676452678,-0.10605001,3.8029501,9.234,,,,,,,,,,,,,,,,,,
1736676452688,0.075,3.8059502,9.25605,,,,,,,,,,,,,,,,,,
1736676452698,0.22995001,3.7770002,9.246,,,,,,,,,,,,,,,,,,
1736676452708,0.25395,3.7669501,9.27,,,,,,,,,,,,,,,,,,
1736676452718,0.31695002,3.7219503,9.315001,,,,,,,,,,,,,,,,,,
1736676452729,0.34095,3.6360002,9.26805,,,,,,,,,,,,,,,,,,
1736676452739,0.37605003,3.5779502,9.32295,,,,,,,,,,,,,,,,,,
1736676452749,0.51795,3.5089502,9.423,,,,,,,,,,,,,,,,,,
1736676452759,0.79095006,3.387,9.523951,,,,,,,,,,,,,,,,,,
1736676452768,1.1380501,3.2689502,9.32295,,,,,,,,,,,,,,,,,,
1736676452779,1.37205,3.21705,8.916,,,,,,,,,,,,,,,,,,
1736676452788,1.4970001,3.183,8.628,,,,,,,,,,,,,,,,,,
1736676452798,1.4899501,3.1620002,8.623051,,,,,,,,,,,,,,,,,,
1736676452808,1.3770001,3.183,8.82705,,,,,,,,,,,,,,,,,,
1736676452818,1.2600001,3.1879501,9.00195,,,,,,,,,,,,,,,,,,
1736676452828,1.1689501,3.21705,9.117001,,,,,,,,,,,,,,,,,,
1736676452838,1.15005,3.288,9.208051,,,,,,,,,,,,,,,,,,
1736676452848,1.19505,3.3940501,9.265051,,,,,,,,,,,,,,,,,,
1736676452858,1.296,3.4660501,9.295951,,,,,,,,,,,,,,,,,,
1736676452868,1.3939501,3.4939501,9.16695,,,,,,,,,,,,,,,,,,
1736676452878,1.473,3.4750502,8.95905,,,,,,,,,,,,,,,,,,
1736676452888,1.4680501,3.423,8.844001,,,,,,,,,,,,,,,,,,
1736676452899,1.401,3.3360002,8.917951,,,,,,,,,,,,,,,,,,
1736676452909,1.35105,3.2380502,8.98995,,,,,,,,,,,,,,,,,,
1736676452919,1.27005,3.20895,9.09,,,,,,,,,,,,,,,,,,
1736676452929,1.28205,3.2689502,9.18105,,,,,,,,,,,,,,,,,,
1736676452939,1.3050001,3.3000002,9.031051,,,,,,,,,,,,,,,,,,
1736676452949,1.30095,3.315,8.899051,,,,,,,,,,,,,,,,,,
1736676452959,1.3920001,3.3649502,8.899051,,,,,,,,,,,,,,,,,,
1736676452969,1.45395,3.3340502,8.793,,,,,,,,,,,,,,,,,,
1736676452979,1.4110501,3.2599502,8.748,,,,,,,,,,,,,,,,,,
1736676452989,1.3219501,3.2670002,8.88,,,,,,,,,,,,,,,,,,
1736676452999,1.3290001,3.2980502,9.01605,,,,,,,,,,,,,,,,,,
1736676453010,1.3630501,3.348,8.973001,,,,,,,,,,,,,,,,,,
1736676453020,1.3609501,3.3720002,8.81505,,,,,,,,,,,,,,,,,,
1736676453030,1.4110501,3.35805,8.820001,,,,,,,,,,,,,,,,,,
1736676453040,1.4490001,3.35805,9.01095,,,,,,,,,,,,,,,,,,
1736676453049,1.4419501,3.3460503,9.057,,,,,,,,,,,,,,,,,,
1736676453059,1.4130001,3.3000002,9.03495,,,,,,,,,,,,,,,,,,
1736676453069,1.38405,3.2329502,8.997001,,,,,,,,,,,,,,,,,,
1736676453079,1.389,3.2239501,8.99505,,,,,,,,,,,,,,,,,,
1736676453089,1.404,3.2569501,8.97795,,,,,,,,,,,,,,,,,,
1736676453099,1.3920001,3.2910001,8.973001,,,,,,,,,,,,,,,,,,
1736676453109,1.3750501,3.31695,8.93505,,,,,,,,,,,,,,,,,,
1736676453119,1.27005,3.31695,8.89395,,,,,,,,,,,,,,,,,,
1736676453131,1.19805,3.2670002,9.05895,,,,,,,,,,,,,,,,,,
1736676453141,1.22595,3.1740003,9.23595,,,,,,,,,,,,,,,,,,
1736676453151,1.248,3.1210501,9.294001,,,,,,,,,,,,,,,,,,
1736676453160,1.32,3.075,9.33705,,,,,,,,,,,,,,,,,,
1736676453170,1.34595,3.08505,9.315001,,,,,,,,,,,,,,,,,,
1736676453180,1.3270501,3.1570501,9.31995,,,,,,,,,,,,,,,,,,
1736676453190,1.3080001,3.21195,9.33195,,,,,,,,,,,,,,,,,,
1736676453200,1.31295,3.21705,9.247951,,,,,,,,,,,,,,,,,,
1736676453210,1.353,3.183,9.189,,,,,,,,,,,,,,,,,,
1736676453220,1.4749501,3.1279502,9.28905,,,,,,,,,,,,,,,,,,
1736676453231,1.59,3.08295,9.361051,,,,,,,,,,,,,,,,,,
1736676453241,1.60695,3.08295,9.35595,,,,,,,,,,,,,,,,,,
1736676453250,1.62195,3.0919502,9.342,,,,,,,,,,,,,,,,,,
1736676453260,1.52295,3.0940502,9.3490505,,,,,,,,,,,,,,,,,,
1736676453270,1.37205,3.0990002,9.415951,,,,,,,,,,,,,,,,,,
1736676453281,1.26195,3.0540001,9.471001,,,,,,,,,,,,,,,,,,
1736676453290,1.22895,2.9940002,9.406051,,,,,,,,,,,,,,,,,,
1736676453300,1.212,2.9869502,9.24405,,,,,,,,,,,,,,,,,,
1736676453311,1.2720001,2.9839501,9.20505,,,,,,,,,,,,,,,,,,
1736676453321,1.3440001,3.0199502,9.315001,,,,,,,,,,,,,,,,,,
1736676453331,1.3219501,3.0589502,9.435,,,,,,,,,,,,,,,,,,
1736676453341,1.23405,3.1330502,9.48495,,,,,,,,,,,,,,,,,,
1736676453350,1.1040001,3.2020502,9.49005,,,,,,,,,,,,,,,,,,
1736676453360,1.023,3.2239501,9.45405,,,,,,,,,,,,,,,,,,
1736676453371,0.97005004,3.1620002,9.385051,,,,,,,,,,,,,,,,,,
1736676453381,0.99705005,3.1060503,9.27,,,,,,,,,,,,,,,,,,
1736676453391,1.0129501,3.0319502,9.16695,,,,,,,,,,,,,,,,,,
1736676453401,1.044,3.01095,9.076051,,,,,,,,,,,,,,,,,,
1736676453411,1.04205,2.9940002,9.045,,,,,,,,,,,,,,,,,,
1736676453421,1.0350001,3.0229502,9.118951,,,,,,,,,,,,,,,,,,
1736676453431,0.98205006,3.0940502,9.150001,,,,,,,,,,,,,,,,,,
1736676453441,0.95100003,3.1420503,9.150001,,,,,,,,,,,,,,,,,,
1736676453451,0.94395006,3.1639502,9.18105,,,,,,,,,,,,,,,,,,
1736676453461,0.906,3.2070003,9.174001,,,,,,,,,,,,,,,,,,
1736676453471,0.83895004,3.2070003,9.226951,,,,,,,,,,,,,,,,,,
1736676453482,0.78405005,3.183,9.28005,,,,,,,,,,,,,,,,,,
1736676453491,0.81495005,3.1969502,9.282001,,,,,,,,,,,,,,,,,,
1736676453501,0.88395005,3.18105,9.27495,,,,,,,,,,,,,,,,,,
1736676453511,0.87195003,3.1710002,9.346951,,,,,,,,,,,,,,,,,,
1736676453521,0.82905006,3.2020502,9.397051,,,,,,,,,,,,,,,,,,
1736676453531,0.76905006,3.20895,9.346951,,,,,,,,,,,,,,,,,,
1736676453541,0.71400005,3.1690502,9.253051,,,,,,,,,,,,,,,,,,
1736676453551,0.72405005,3.1420503,9.184051,,,,,,,,,,,,,,,,,,
1736676453561,0.70905006,3.147,9.19305,,,,,,,,,,,,,,,,,,
1736676453571,0.66405004,3.15,9.186001,,,,,,,,,,,,,,,,,,
1736676453581,0.64005005,3.17595,9.196051,,,,,,,,,,,,,,,,,,
1736676453592,0.61395,3.1740003,9.31995,,,,,,,,,,,,,,,,,,
1736676453603,0.61395,3.1660502,9.354,,,,,,,,,,,,,,,,,,
1736676453612,0.60405004,3.1330502,9.271951,,,,,,,,,,,,,,,,,,
1736676453622,0.62100005,3.0730503,9.220051,,,,,,,,,,,,,,,,,,
1736676453633,0.60195005,3.04395,9.17895,,,,,,,,,,,,,,,,,,
1736676453643,0.513,3.0630002,9.141001,,,,,,,,,,,,,,,,,,
1736676453652,0.42405003,3.147,9.15705,,,,,,,,,,,,,,,,,,
1736676453662,0.37395,3.24795,9.165,,,,,,,,,,,,,,,,,,
1736676453673,0.324,3.3240001,9.21195,,,,,,,,,,,,,,,,,,
1736676453683,0.31905,3.3600001,9.222,,,,,,,,,,,,,,,,,,
1736676453692,0.33600003,3.3360002,9.1380005,,,,,,,,,,,,,,,,,,
1736676453702,0.31905,3.28605,9.049951,,,,,,,,,,,,,,,,,,
1736676453712,0.32895002,3.2260501,9.02805,,,,,,,,,,,,,,,,,,
1736676453722,0.33795002,3.1690502,9.019051,,,,,,,,,,,,,,,,,,
1736676453732,0.28800002,3.1570501,9.064051,,,,,,,,,,,,,,,,,,
1736676453742,0.27795002,3.1590002,9.150001,,,,,,,,,,,,,,,,,,
1736676453753,0.27600002,3.17805,9.294001,,,,,,,,,,,,,,,,,,
1736676453763,0.26205,3.20895,9.30795,,,,,,,,,,,,,,,,,,
1736676453773,0.25905,3.2640002,9.259951,,,,,,,,,,,,,,,,,,
1736676453783,0.26895002,3.2980502,9.330001,,,,,,,,,,,,,,,,,,
1736676453792,0.25905,3.3289502,9.426001,,,,,,,,,,,,,,,,,,
1736676453802,0.252,3.3120003,9.44505,,,,,,,,,,,,,,,,,,
1736676453812,0.19005,3.3120003,9.35595,,,,,,,,,,,,,,,,,,
1736676453822,0.15405001,3.2719502,9.2029505,,,,,,,,,,,,,,,,,,
1736676453832,0.147,3.2430003,9.09,,,,,,,,,,,,,,,,,,
1736676453843,0.18,3.255,9.088051,,,,,,,,,,,,,,,,,,
1736676453854,0.18705001,3.2980502,9.085951,,,,,,,,,,,,,,,,,,
1736676453864,0.15405001,3.35505,9.073951,,,,,,,,,,,,,,,,,,
1736676453873,0.14895001,3.3940501,9.09795,,,,,,,,,,,,,,,,,,
1736676453883,0.135,3.384,9.12405,,,,,,,,,,,,,,,,,,
1736676453893,0.10095,3.3390002,9.126,,,,,,,,,,,,,,,,,,
1736676453903,0.11505,3.2980502,9.141001,,,,,,,,,,,,,,,,,,
1736676453913,0.12705001,3.2760003,9.1380005,,,,,,,,,,,,,,,,,,
1736676453923,0.10095,3.255,9.16005,,,,,,,,,,,,,,,,,,
1736676453933,0.112950005,3.2760003,9.28005,,,,,,,,,,,,,,,,,,
1736676453943,0.123,3.2760003,9.342,,,,,,,,,,,,,,,,,,
1736676453953,0.16605,3.2430003,9.391951,,,,,,,,,,,,,,,,,,
1736676453963,0.18300001,3.25305,9.27705,,,,,,,,,,,,,,,,,,
1736676453973,0.08895,3.2209501,9.12405,,,,,,,,,,,,,,,,,,
1736676453983,0.06795,3.21195,9.13095,,,,,,,,,,,,,,,,,,
1736676453994,0.072000004,3.2310002,9.129001,,,,,,,,,,,,,,,,,,
1736676454004,0.015000001,3.24495,9.14505,,,,,,,,,,,,,,,,,,
1736676454013,0.028950002,3.2740502,9.162001,,,,,,,,,,,,,,,,,,
1736676454023,0.060000002,3.2760003,9.174001,,,,,,,,,,,,,,,,,,
1736676454033,0.076950006,3.2380502,9.214951,,,,,,,,,,,,,,,,,,
1736676454043,0.15900001,3.1660502,9.33195,,,,,,,,,,,,,,,,,,
1736676454053,0.13695,3.1570501,9.318001,,,,,,,,,,,,,,,,,,
1736676454063,0.064950004,3.1740003,9.27495,,,,,,,,,,,,,,,,,,
1736676454074,0.010050001,3.1879501,9.30795,,,,,,,,,,,,,,,,,,
1736676454084,0.02205,3.1570501,9.28905,,,,,,,,,,,,,,,,,,
1736676454094,0.08205,3.1260002,9.28905,,,,,,,,,,,,,,,,,,
1736676454104,0.15900001,3.1230001,9.28695,,,,,,,,,,,,,,,,,,
1736676454114,0.19005,3.11595,9.30795,,,,,,,,,,,,,,,,,,
1736676454124,0.16605,3.14505,9.21195,,,,,,,,,,,,,,,,,,
1736676454134,0.076950006,3.15,9.14805,,,,,,,,,,,,,,,,,,
1736676454144,0.034050003,3.1420503,9.2029505,,,,,,,,,,,,,,,,,,
1736676454155,0.052950002,3.1420503,9.31305,,,,,,,,,,,,,,,,,,
1736676454165,0.08895,3.15,9.33705,,,,,,,,,,,,,,,,,,
1736676454175,0.15405001,3.183,9.34395,,,,,,,,,,,,,,,,,,
1736676454185,0.17295001,3.1879501,9.39,,,,,,,,,,,,,,,,,,
1736676454195,0.16095,3.18105,9.394051,,,,,,,,,,,,,,,,,,
1736676454205,0.10605001,3.1519501,9.406051,,,,,,,,,,,,,,,,,,
1736676454215,0.08895,3.1300502,9.438001,,,,,,,,,,,,,,,,,,
1736676454225,0.05595,3.1420503,9.423,,,,,,,,,,,,,,,,,,
1736676454234,0.075,3.1590002,9.4470005,,,,,,,,,,,,,,,,,,
1736676454244,0.12705001,3.2260501,9.531,,,,,,,,,,,,,,,,,,
1736676454255,0.19695,3.2959502,9.559951,,,,,,,,,,,,,,,,,,
1736676454265,0.19005,3.31995,9.519,,,,,,,,,,,,,,,,,,
1736676454274,0.19905001,3.3079503,9.556951,,,,,,,,,,,,,,,,,,
1736676454284,0.17805001,3.28605,9.576,,,,,,,,,,,,,,,,,,
1736676454294,0.09900001,3.2410502,9.58605,,,,,,,,,,,,,,,,,,
1736676454305,0.060000002,3.20895,9.591001,,,,,,,,,,,,,,,,,,
1736676454315,0.051000003,3.14505,9.556951,,,,,,,,,,,,,,,,,,
1736676454325,0.08205,3.0940502,9.531,,,,,,,,,,,,,,,,,,
1736676454335,0.112950005,3.114,9.592951,,,,,,,,,,,,,,,,,,
1736676454345,0.132,3.1620002,9.63405,,,,,,,,,,,,,,,,,,
1736676454355,0.16305001,3.2260501,9.61005,,,,,,,,,,,,,,,,,,
1736676454365,0.15105,3.2689502,9.48495,,,,,,,,,,,,,,,,,,
1736676454375,0.13005,3.2380502,9.438001,,,,,,,,,,,,,,,,,,
1736676454385,0.112950005,3.2050502,9.47805,,,,,,,,,,,,,,,,,,
1736676454396,0.051000003,3.18495,9.538051,,,,,,,,,,,,,,,,,,
1736676454406,0.010050001,3.183,9.47595,,,,,,,,,,,,,,,,,,
1736676454416,-0.06795,3.2239501,9.291,,,,,,,,,,,,,,,,,,
1736676454426,-0.043950003,3.25005,9.4470005,,,,,,,,,,,,,,,,,,
1736676454436,-0.01305,3.3049502,9.53295,,,,,,,,,,,,,,,,,,
1736676454446,-0.058050003,3.4030502,9.50205,,,,,,,,,,,,,,,,,,
1736676454455,-0.063,3.4249501,9.612,,,,,,,,,,,,,,,,,,
1736676454465,-0.042000003,3.3990002,9.77505,,,,,,,,,,,,,,,,,,
1736676454475,-0.087000005,3.3990002,9.904051,,,,,,,,,,,,,,,,,,
1736676454485,-0.123,3.3649502,9.94005,,,,,,,,,,,,,,,,,,
1736676454496,0.034050003,3.2050502,9.703051,,,,,,,,,,,,,,,,,,
1736676454506,0.015000001,3.1660502,9.327001,,,,,,,,,,,,,,,,,,
1736676454515,-0.076950006,3.25005,9.291,,,,,,,,,,,,,,,,,,
1736676454525,-0.094050005,3.315,9.385051,,,,,,,,,,,,,,,,,,
1736676454535,-0.087000005,3.3360002,9.375,,,,,,,,,,,,,,,,,,
1736676454546,0.010050001,3.38895,9.403951,,,,,,,,,,,,,,,,,,
1736676454557,0.079950005,3.3750002,9.46605,,,,,,,,,,,,,,,,,,
1736676454567,0.135,3.3390002,9.543,,,,,,,,,,,,,,,,,,
1736676454576,0.15900001,3.28605,9.576,,,,,,,,,,,,,,,,,,
1736676454586,0.14895001,3.2290502,9.552,,,,,,,,,,,,,,,,,,
1736676454596,0.120000005,3.2209501,9.5140505,,,,,,,,,,,,,,,,,,
1736676454607,0.07005,3.2020502,9.592951,,,,,,,,,,,,,,,,,,
1736676454617,0.05595,3.17805,9.7560005,,,,,,,,,,,,,,,,,,
1736676454627,0.003,3.1930501,9.8209505,,,,,,,,,,,,,,,,,,
1736676454636,-0.027,3.2070003,9.852,,,,,,,,,,,,,,,,,,
1736676454646,-0.02205,3.2050502,9.828,,,,,,,,,,,,,,,,,,
1736676454657,0.00795,3.1590002,9.804001,,,,,,,,,,,,,,,,,,
1736676454667,0.036000002,3.0940502,9.78495,,,,,,,,,,,,,,,,,,
1736676454677,0.060000002,3.07095,9.724951,,,,,,,,,,,,,,,,,,
1736676454687,0.08205,3.0900002,9.58395,,,,,,,,,,,,,,,,,,
1736676454696,0.10095,3.1230001,9.46905,,,,,,,,,,,,,,,,,,
1736676454706,0.11505,3.1639502,9.415951,,,,,,,,,,,,,,,,,,
1736676454717,0.16605,3.1590002,9.44505,,,,,,,,,,,,,,,,,,
1736676454727,0.18300001,3.13995,9.47295,,,,,,,,,,,,,,,,,,
1736676454736,0.18300001,3.11805,9.493051,,,,,,,,,,,,,,,,,,
1736676454746,0.132,3.1060503,9.547951,,,,,,,,,,,,,,,,,,
1736676454757,0.064950004,3.1639502,9.603001,,,,,,,,,,,,,,,,,,
1736676454767,0.01695,3.20895,9.639001,,,,,,,,,,,,,,,,,,
1736676454777,0.048,3.1740003,9.670051,,,,,,,,,,,,,,,,,,
1736676454787,0.135,3.1519501,9.715051,,,,,,,,,,,,,,,,,,
1736676454798,0.19005,3.114,9.897,,,,,,,,,,,,,,,,,,
1736676454808,0.22800002,3.13995,10.00695,,,,,,,,,,,,,,,,,,
1736676454817,0.23295002,3.17805,9.916051,,,,,,,,,,,,,,,,,,
1736676454827,0.24495001,3.2050502,9.8230505,,,,,,,,,,,,,,,,,,
1736676454838,0.22305001,3.2020502,9.768001,,,,,,,,,,,,,,,,,,
1736676454847,0.135,3.1740003,9.80595,,,,,,,,,,,,,,,,,,
1736676454858,0.052950002,3.1660502,9.8539505,,,,,,,,,,,,,,,,,,
1736676454868,0.02205,3.1660502,9.856951,,,,,,,,,,,,,,,,,,
1736676454877,0.064950004,3.1260002,9.861,,,,,,,,,,,,,,,,,,
1736676454887,0.16800001,3.1210501,9.84,,,,,,,,,,,,,,,,,,
1736676454898,0.21105,3.1060503,9.825001,,,,,,,,,,,,,,,,,,
1736676454908,0.22305001,3.11595,9.77805,,,,,,,,,,,,,,,,,,
1736676454917,0.20205002,3.11595,9.76305,,,,,,,,,,,,,,,,,,
1736676454927,0.15105,3.11805,9.73005,,,,,,,,,,,,,,,,,,
1736676454937,0.072000004,3.1230001,9.703051,,,,,,,,,,,,,,,,,,
1736676454947,0.034050003,3.0990002,9.732,,,,,,,,,,,,,,,,,,
1736676454957,0.072000004,3.0870001,9.74205,,,,,,,,,,,,,,,,,,
1736676454967,0.13905,3.0730503,9.7890005,,,,,,,,,,,,,,,,,,
1736676454978,0.23295002,3.0630002,9.849001,,,,,,,,,,,,,,,,,,
1736676454988,0.28995,3.0900002,9.832951,,,,,,,,,,,,,,,,,,
1736676454997,0.29295,3.1420503,9.825001,,,,,,,,,,,,,,,,,,
1736676455008,0.26895002,3.1690502,9.885,,,,,,,,,,,,,,,,,,
1736676455019,0.25395,3.2020502,9.969001,,,,,,,,,,,,,,,,,,
1736676455029,0.24705002,3.1620002,9.90705,,,,,,,,,,,,,,,,,,
1736676455038,0.25695002,3.15405,9.79395,,,,,,,,,,,,,,,,,,
1736676455048,0.28995,3.1210501,9.769951,,,,,,,,,,,,,,,,,,
1736676455058,0.28800002,3.0940502,9.79695,,,,,,,,,,,,,,,,,,
1736676455069,0.312,3.0870001,9.871051,,,,,,,,,,,,,,,,,,
1736676455079,0.333,3.11595,9.94305,,,,,,,,,,,,,,,,,,
1736676455089,0.324,3.1570501,9.97395,,,,,,,,,,,,,,,,,,
1736676455099,0.35295,3.1690502,9.93105,,,,,,,,,,,,,,,,,,
1736676455109,0.37905002,3.1570501,9.889951,,,,,,,,,,,,,,,,,,
1736676455119,0.35505003,3.1210501,9.816001,,,,,,,,,,,,,,,,,,
1736676455129,0.30195,3.114,9.7560005,,,,,,,,,,,,,,,,,,
1736676455138,0.25005,3.1230001,9.78495,,,,,,,,,,,,,,,,,,
1736676455148,0.25395,3.13995,9.864,,,,,,,,,,,,,,,,,,
1736676455158,0.31905,3.18105,9.897,,,,,,,,,,,,,,,,,,
1736676455168,0.37605003,3.2209501,9.901951,,,,,,,,,,,,,,,,,,
1736676455178,0.39795002,3.2209501,9.9210005,,,,,,,,,,,,,,,,,,
1736676455188,0.42405003,3.17805,9.92595,,,,,,,,,,,,,,,,,,
1736676455198,0.42900002,3.1420503,9.868951,,,,,,,,,,,,,,,,,,
1736676455208,0.372,3.1350002,9.852,,,,,,,,,,,,,,,,,,
1736676455218,0.34305,3.17595,9.871051,,,,,,,,,,,,,,,,,,
1736676455228,0.321,3.2209501,9.9210005,,,,,,,,,,,,,,,,,,
1736676455238,0.34305,3.2290502,9.95505,,,,,,,,,,,,,,,,,,
1736676455249,0.42195,3.2050502,9.904051,,,,,,,,,,,,,,,,,,
1736676455259,0.44400004,3.1350002,9.852,,,,,,,,,,,,,,,,,,
1736676455269,0.46005002,3.0940502,9.84,,,,,,,,,,,,,,,,,,
1736676455280,0.46005002,3.078,9.871051,,,,,,,,,,,,,,,,,,
1736676455290,0.41205,3.1020002,9.883051,,,,,,,,,,,,,,,,,,
1736676455299,0.37905002,3.1620002,9.9210005,,,,,,,,,,,,,,,,,,
1736676455309,0.40500003,3.2290502,9.97395,,,,,,,,,,,,,,,,,,
1736676455319,0.44805002,3.2430003,9.933001,,,,,,,,,,,,,,,,,,
1736676455329,0.47895002,3.2719502,9.8880005,,,,,,,,,,,,,,,,,,
1736676455339,0.48900002,3.2599502,9.913951,,,,,,,,,,,,,,,,,,
1736676455349,0.44805002,3.2020502,9.916051,,,,,,,,,,,,,,,,,,
1736676455360,0.381,3.1660502,9.93105,,,,,,,,,,,,,,,,,,
1736676455370,0.39600003,3.1519501,9.91905,,,,,,,,,,,,,,,,,,
1736676455379,0.42000002,3.1350002,9.889951,,,,,,,,,,,,,,,,,,
1736676455389,0.39600003,3.1210501,9.859051,,,,,,,,,,,,,,,,,,
1736676455399,0.40500003,3.11595,9.856951,,,,,,,,,,,,,,,,,,
1736676455409,0.40500003,3.1230001,9.91905,,,,,,,,,,,,,,,,,,
1736676455419,0.39600003,3.15,9.933001,,,,,,,,,,,,,,,,,,
1736676455429,0.37395,3.147,9.9210005,,,,,,,,,,,,,,,,,,
1736676452449,,,,-21.900002,-34.143753,-24.243752,,,,,,,,,,,,,,,
1736676452469,,,,-22.25625,-34.0875,-24.243752,,,,,,,,,,,,,,,
1736676452489,,,,-22.5,-33.84375,-24.300001,,,,,,,,,,,,,,,
1736676452509,,,,-22.612501,-33.600002,-24.056252,,,,,,,,,,,,,,,
1736676452529,,,,-23.400002,-33.05625,-23.5125,,,,,,,,,,,,,,,
1736676452549,,,,-23.94375,-32.756252,-23.34375,,,,,,,,,,,,,,,
1736676452569,,,,-24.54375,-32.943752,-23.212502,,,,,,,,,,,,,,,
1736676452589,,,,-25.143751,-33.0,-23.212502,,,,,,,,,,,,,,,
1736676452609,,,,-25.312502,-33.35625,-23.1,,,,,,,,,,,,,,,
1736676452629,,,,-25.85625,-33.84375,-22.556252,,,,,,,,,,,,,,,
1736676452649,,,,-26.156252,-33.65625,-22.0125,,,,,,,,,,,,,,,
1736676452670,,,,-26.75625,-33.9,-21.84375,,,,,,,,,,,,,,,
1736676452690,,,,-27.300001,-33.65625,-21.54375,,,,,,,,,,,,,,,
1736676452709,,,,-27.843752,-33.600002,-21.4125,,,,,,,,,,,,,,,
1736676452729,,,,-28.312502,-33.600002,-21.300001,,,,,,,,,,,,,,,
1736676452749,,,,-29.04375,-33.487503,-20.5125,,,,,,,,,,,,,,,
1736676452770,,,,-29.343752,-33.300003,-20.04375,,,,,,,,,,,,,,,
1736676452789,,,,-30.056252,-33.05625,-19.556252,,,,,,,,,,,,,,,
1736676452810,,,,-30.54375,-32.8875,-19.143751,,,,,,,,,,,,,,,
1736676452830,,,,-30.6,-32.756252,-18.956251,,,,,,,,,,,,,,,
1736676452849,,,,-31.0125,-32.756252,-18.84375,,,,,,,,,,,,,,,
1736676452869,,,,-30.900002,-32.643753,-18.84375,,,,,,,,,,,,,,,
1736676452889,,,,-31.25625,-32.7,-18.300001,,,,,,,,,,,,,,,
1736676452909,,,,-31.612501,-32.5875,-18.112501,,,,,,,,,,,,,,,
1736676452930,,,,-31.743752,-32.643753,-18.243752,,,,,,,,,,,,,,,
1736676452949,,,,-32.15625,-32.456253,-18.112501,,,,,,,,,,,,,,,
1736676452969,,,,-32.15625,-32.287502,-17.94375,,,,,,,,,,,,,,,
1736676452989,,,,-32.15625,-32.34375,-18.243752,,,,,,,,,,,,,,,
1736676453009,,,,-32.7,-32.4,-18.0,,,,,,,,,,,,,,,
1736676453029,,,,-32.4,-32.643753,-17.7,,,,,,,,,,,,,,,
1736676453050,,,,-32.4,-32.756252,-18.112501,,,,,,,,,,,,,,,
1736676453070,,,,-32.4,-32.7,-17.643751,,,,,,,,,,,,,,,
1736676453090,,,,-32.15625,-32.7,-17.7,,,,,,,,,,,,,,,
1736676453109,,,,-32.04375,-32.456253,-17.643751,,,,,,,,,,,,,,,
1736676453130,,,,-32.2125,-32.643753,-17.456251,,,,,,,,,,,,,,,
1736676453149,,,,-32.5125,-32.8875,-17.34375,,,,,,,,,,,,,,,
1736676453169,,,,-32.5125,-32.456253,-17.212502,,,,,,,,,,,,,,,
1736676453189,,,,-33.0,-32.8875,-17.34375,,,,,,,,,,,,,,,
1736676453209,,,,-33.0,-32.643753,-17.456251,,,,,,,,,,,,,,,
1736676453229,,,,-32.756252,-32.643753,-17.8125,,,,,,,,,,,,,,,
1736676453250,,,,-32.8125,-32.8875,-17.7,,,,,,,,,,,,,,,
1736676453269,,,,-32.5125,-32.7,-17.456251,,,,,,,,,,,,,,,
1736676453289,,,,-32.34375,-32.456253,-17.643751,,,,,,,,,,,,,,,
1736676453309,,,,-32.4,-32.456253,-17.400002,,,,,,,,,,,,,,,
1736676453329,,,,-32.04375,-32.456253,-17.34375,,,,,,,,,,,,,,,
1736676453349,,,,-32.100002,-32.100002,-17.456251,,,,,,,,,,,,,,,
1736676453369,,,,-31.85625,-32.4,-17.212502,,,,,,,,,,,,,,,
1736676453389,,,,-31.312502,-31.987501,-17.34375,,,,,,,,,,,,,,,
1736676453409,,,,-31.143751,-31.800001,-17.5125,,,,,,,,,,,,,,,
1736676453429,,,,-31.0125,-31.743752,-17.8125,,,,,,,,,,,,,,,
1736676453449,,,,-30.900002,-31.44375,-18.35625,,,,,,,,,,,,,,,
1736676453469,,,,-30.843752,-31.500002,-18.300001,,,,,,,,,,,,,,,
1736676453490,,,,-31.0125,-31.687502,-18.6,,,,,,,,,,,,,,,
1736676453509,,,,-30.843752,-31.987501,-18.6,,,,,,,,,,,,,,,
1736676453529,,,,-30.712502,-32.287502,-18.35625,,,,,,,,,,,,,,,
1736676453549,,,,-30.712502,-32.4,-18.65625,,,,,,,,,,,,,,,
1736676453570,,,,-30.112501,-32.456253,-18.35625,,,,,,,,,,,,,,,
1736676453589,,,,-30.112501,-32.287502,-18.54375,,,,,,,,,,,,,,,
1736676453609,,,,-30.300001,-32.15625,-18.84375,,,,,,,,,,,,,,,
1736676453630,,,,-30.243752,-32.15625,-19.0125,,,,,,,,,,,,,,,
1736676453649,,,,-30.4125,-31.987501,-19.556252,,,,,,,,,,,,,,,
1736676453669,,,,-30.300001,-32.100002,-19.5,,,,,,,,,,,,,,,
1736676453690,,,,-29.94375,-31.987501,-19.44375,,,,,,,,,,,,,,,
1736676453709,,,,-29.94375,-31.85625,-19.5,,,,,,,,,,,,,,,
1736676453729,,,,-29.7,-32.100002,-19.3125,,,,,,,,,,,,,,,
1736676453749,,,,-29.5125,-32.100002,-19.5,,,,,,,,,,,,,,,
1736676453769,,,,-29.400002,-32.287502,-19.5,,,,,,,,,,,,,,,
1736676453789,,,,-29.343752,-32.100002,-19.612501,,,,,,,,,,,,,,,
1736676453810,,,,-29.1,-31.987501,-19.556252,,,,,,,,,,,,,,,
1736676453829,,,,-29.156252,-32.04375,-19.85625,,,,,,,,,,,,,,,
1736676453849,,,,-29.343752,-31.800001,-19.9125,,,,,,,,,,,,,,,
1736676453870,,,,-29.04375,-31.800001,-19.5,,,,,,,,,,,,,,,
1736676453890,,,,-29.04375,-31.743752,-19.556252,,,,,,,,,,,,,,,
1736676453909,,,,-28.800001,-31.743752,-19.5,,,,,,,,,,,,,,,
1736676453929,,,,-28.612501,-31.800001,-19.612501,,,,,,,,,,,,,,,
1736676453949,,,,-28.612501,-32.100002,-19.85625,,,,,,,,,,,,,,,
1736676453969,,,,-28.800001,-32.100002,-20.04375,,,,,,,,,,,,,,,
1736676453989,,,,-28.612501,-32.100002,-19.85625,,,,,,,,,,,,,,,
1736676454010,,,,-28.312502,-32.15625,-19.743752,,,,,,,,,,,,,,,
1736676454029,,,,-28.2,-31.800001,-20.1,,,,,,,,,,,,,,,
1736676454050,,,,-27.956251,-31.85625,-20.15625,,,,,,,,,,,,,,,
1736676454070,,,,-27.956251,-31.743752,-20.5125,,,,,,,,,,,,,,,
1736676454089,,,,-28.500002,-31.743752,-20.7,,,,,,,,,,,,,,,
1736676454110,,,,-28.556252,-31.85625,-20.456251,,,,,,,,,,,,,,,
1736676454129,,,,-28.800001,-32.287502,-20.34375,,,,,,,,,,,,,,,
1736676454150,,,,-28.743752,-32.456253,-20.456251,,,,,,,,,,,,,,,
1736676454169,,,,-28.143751,-32.34375,-20.456251,,,,,,,,,,,,,,,
1736676454189,,,,-28.0125,-32.15625,-20.456251,,,,,,,,,,,,,,,
1736676454210,,,,-27.956251,-31.743752,-20.400002,,,,,,,,,,,,,,,
1736676454230,,,,-27.900002,-31.556252,-19.743752,,,,,,,,,,,,,,,
1736676454249,,,,-28.44375,-31.687502,-19.3125,,,,,,,,,,,,,,,
1736676454270,,,,-28.612501,-31.800001,-19.556252,,,,,,,,,,,,,,,
1736676454289,,,,-28.556252,-31.85625,-19.800001,,,,,,,,,,,,,,,
1736676454309,,,,-29.156252,-32.100002,-20.34375,,,,,,,,,,,,,,,
1736676454330,,,,-28.800001,-31.987501,-20.5125,,,,,,,,,,,,,,,
1736676454350,,,,-28.612501,-31.800001,-20.456251,,,,,,,,,,,,,,,
1736676454370,,,,-28.612501,-31.3875,-20.5125,,,,,,,,,,,,,,,
1736676454390,,,,-28.2,-31.087502,-20.456251,,,,,,,,,,,,,,,
1736676454409,,,,-27.956251,-31.2,-20.456251,,,,,,,,,,,,,,,
1736676454430,,,,-28.0125,-31.143751,-20.643751,,,,,,,,,,,,,,,
1736676454449,,,,-27.900002,-31.500002,-20.643751,,,,,,,,,,,,,,,
1736676454470,,,,-27.900002,-31.500002,-20.7,,,,,,,,,,,,,,,
1736676454490,,,,-27.956251,-31.687502,-20.94375,,,,,,,,,,,,,,,
1736676454510,,,,-27.843752,-31.987501,-21.0,,,,,,,,,,,,,,,
1736676454530,,,,-27.656252,-32.100002,-21.056252,,,,,,,,,,,,,,,
1736676454549,,,,-27.4125,-32.15625,-20.8125,,,,,,,,,,,,,,,
1736676454569,,,,-27.54375,-32.287502,-20.94375,,,,,,,,,,,,,,,
1736676454590,,,,-27.656252,-32.34375,-20.5125,,,,,,,,,,,,,,,
1736676454610,,,,-27.900002,-32.04375,-20.400002,,,,,,,,,,,,,,,
1736676454629,,,,-28.143751,-31.743752,-20.34375,,,,,,,,,,,,,,,
1736676454650,,,,-28.800001,-31.687502,-20.1,,,,,,,,,,,,,,,
1736676454670,,,,-28.85625,-31.500002,-20.04375,,,,,,,,,,,,,,,
1736676454690,,,,-29.1,-31.85625,-20.34375,,,,,,,,,,,,,,,
1736676454709,,,,-29.04375,-32.34375,-20.400002,,,,,,,,,,,,,,,
1736676454729,,,,-28.9125,-32.15625,-20.643751,,,,,,,,,,,,,,,
1736676454749,,,,-28.743752,-32.4,-20.75625,,,,,,,,,,,,,,,
1736676454770,,,,-28.612501,-32.287502,-20.34375,,,,,,,,,,,,,,,
1736676454789,,,,-28.44375,-32.15625,-20.400002,,,,,,,,,,,,,,,
1736676454809,,,,-28.143751,-32.15625,-20.15625,,,,,,,,,,,,,,,
1736676454829,,,,-28.500002,-31.85625,-20.1,,,,,,,,,,,,,,,
1736676454848,,,,-28.743752,-31.687502,-20.456251,,,,,,,,,,,,,,,
1736676454868,,,,-29.343752,-31.500002,-20.5125,,,,,,,,,,,,,,,
1736676454888,,,,-29.456251,-31.556252,-20.400002,,,,,,,,,,,,,,,
1736676454908,,,,-29.212502,-31.556252,-20.456251,,,,,,,,,,,,,,,
1736676454928,,,,-28.85625,-31.85625,-20.212502,,,,,,,,,,,,,,,
1736676454949,,,,-28.500002,-31.987501,-20.1,,,,,,,,,,,,,,,
1736676454970,,,,-28.612501,-31.800001,-20.15625,,,,,,,,,,,,,,,
1736676454990,,,,-28.743752,-31.687502,-20.34375,,,,,,,,,,,,,,,
1736676455010,,,,-28.800001,-31.25625,-20.400002,,,,,,,,,,,,,,,
1736676455030,,,,-29.04375,-31.087502,-20.04375,,,,,,,,,,,,,,,
1736676455049,,,,-28.85625,-31.2,-20.04375,,,,,,,,,,,,,,,
1736676455069,,,,-28.9125,-31.2,-19.9125,,,,,,,,,,,,,,,
1736676455089,,,,-28.85625,-31.2,-20.04375,,,,,,,,,,,,,,,
1736676455109,,,,-29.04375,-31.143751,-20.212502,,,,,,,,,,,,,,,
1736676455130,,,,-29.04375,-30.956251,-20.75625,,,,,,,,,,,,,,,
1736676455150,,,,-28.9125,-31.087502,-20.5125,,,,,,,,,,,,,,,
1736676455169,,,,-29.212502,-31.087502,-20.400002,,,,,,,,,,,,,,,
1736676455189,,,,-29.456251,-31.2,-20.34375,,,,,,,,,,,,,,,
1736676455209,,,,-29.456251,-31.143751,-20.04375,,,,,,,,,,,,,,,
1736676455230,,,,-29.1,-30.956251,-20.04375,,,,,,,,,,,,,,,
1736676455249,,,,-29.343752,-30.956251,-19.9125,,,,,,,,,,,,,,,
1736676455269,,,,-29.1,-30.956251,-20.1,,,,,,,,,,,,,,,
1736676455290,,,,-29.156252,-31.143751,-20.1,,,,,,,,,,,,,,,
1736676455309,,,,-29.643751,-31.2,-20.212502,,,,,,,,,,,,,,,
1736676455330,,,,-29.643751,-31.3875,-20.15625,,,,,,,,,,,,,,,
1736676455350,,,,-29.643751,-31.3875,-20.1,,,,,,,,,,,,,,,
1736676455369,,,,-29.643751,-31.3875,-19.800001,,,,,,,,,,,,,,,
1736676455389,,,,-29.812502,-31.44375,-19.612501,,,,,,,,,,,,,,,
1736676455409,,,,-29.75625,-31.44375,-19.3125,,,,,,,,,,,,,,,
1736676455429,,,,-29.75625,-31.556252,-19.3125,,,,,,,,,,,,,,,
1736676452448,,,,,,,-1.336967,3.917871,8.890064,,,,,,,,,,,,
1736676452458,,,,,,,-1.318807,3.89319,8.903612,,,,,,,,,,,,
1736676452468,,,,,,,-1.307388,3.870543,8.915163,,,,,,,,,,,,
1736676452478,,,,,,,-1.259043,3.847406,8.932124,,,,,,,,,,,,
1736676452487,,,,,,,-1.223606,3.836714,8.941645,,,,,,,,,,,,
1736676452497,,,,,,,-1.147915,3.813969,8.961395,,,,,,,,,,,,
1736676452508,,,,,,,-1.091994,3.799486,8.974527,,,,,,,,,,,,
1736676452518,,,,,,,-1.011381,3.779819,8.992261,,,,,,,,,,,,
1736676452527,,,,,,,-0.952689,3.767156,9.003983,,,,,,,,,,,,
1736676452537,,,,,,,-0.894619,3.773838,9.007146,,,,,,,,,,,,
1736676452547,,,,,,,-0.829004,3.772377,9.014038,,,,,,,,,,,,
1736676452557,,,,,,,-0.768149,3.80608,9.005266,,,,,,,,,,,,
1736676452567,,,,,,,-0.70685,3.823612,9.002865,,,,,,,,,,,,
1736676452577,,,,,,,-0.638874,3.845123,8.998785,,,,,,,,,,,,
1736676452587,,,,,,,-0.579546,3.861105,8.995961,,,,,,,,,,,,
1736676452597,,,,,,,-0.499986,3.877157,8.993829,,,,,,,,,,,,
1736676452607,,,,,,,-0.438857,3.881502,8.995138,,,,,,,,,,,,
1736676452617,,,,,,,-0.371478,3.876482,9.000329,,,,,,,,,,,,
1736676452627,,,,,,,-0.317265,3.87759,9.001923,,,,,,,,,,,,
1736676452637,,,,,,,-0.245021,3.836554,9.021744,,,,,,,,,,,,
1736676452647,,,,,,,-0.183537,3.805978,9.036143,,,,,,,,,,,,
1736676452657,,,,,,,-0.115031,3.759944,9.056527,,,,,,,,,,,,
1736676452668,,,,,,,-0.053564,3.724473,9.071745,,,,,,,,,,,,
1736676452678,,,,,,,0.010673,3.698148,9.082662,,,,,,,,,,,,
1736676452688,,,,,,,0.068625,3.671427,9.093241,,,,,,,,,,,,
1736676452698,,,,,,,0.152341,3.654071,9.099216,,,,,,,,,,,,
1736676452708,,,,,,,0.218085,3.642266,9.102612,,,,,,,,,,,,
1736676452718,,,,,,,0.30353,3.625734,9.106774,,,,,,,,,,,,
1736676452729,,,,,,,0.383868,3.617653,9.106967,,,,,,,,,,,,
1736676452738,,,,,,,0.475597,3.597387,9.110682,,,,,,,,,,,,
1736676452749,,,,,,,0.566319,3.586839,9.10967,,,,,,,,,,,,
1736676452759,,,,,,,0.697558,3.552501,9.114042,,,,,,,,,,,,
1736676452769,,,,,,,0.802597,3.532628,9.113138,,,,,,,,,,,,
1736676452779,,,,,,,0.969236,3.504009,9.107972,,,,,,,,,,,,
1736676452788,,,,,,,1.074742,3.471103,9.108691,,,,,,,,,,,,
1736676452798,,,,,,,1.178884,3.450605,9.10355,,,,,,,,,,,,
1736676452808,,,,,,,1.24667,3.433356,9.101015,,,,,,,,,,,,
1736676452818,,,,,,,1.266022,3.408383,9.10772,,,,,,,,,,,,
1736676452828,,,,,,,1.289542,3.389099,9.111614,,,,,,,,,,,,
1736676452838,,,,,,,1.289518,3.369203,9.118995,,,,,,,,,,,,
1736676452848,,,,,,,1.29886,3.347224,9.125761,,,,,,,,,,,,
1736676452858,,,,,,,1.321431,3.340823,9.124868,,,,,,,,,,,,
1736676452868,,,,,,,1.337235,3.33185,9.125851,,,,,,,,,,,,
1736676452878,,,,,,,1.374812,3.338583,9.117801,,,,,,,,,,,,
1736676452888,,,,,,,1.391326,3.341508,9.11422,,,,,,,,,,,,
1736676452900,,,,,,,1.399765,3.340198,9.113404,,,,,,,,,,,,
1736676452909,,,,,,,1.406626,3.348926,9.109145,,,,,,,,,,,,
1736676452919,,,,,,,1.392249,3.335764,9.116178,,,,,,,,,,,,
1736676452929,,,,,,,1.391016,3.328684,9.118953,,,,,,,,,,,,
1736676452939,,,,,,,1.392166,3.326286,9.119655,,,,,,,,,,,,
1736676452949,,,,,,,1.394547,3.317526,9.122482,,,,,,,,,,,,
1736676452959,,,,,,,1.410184,3.324067,9.117698,,,,,,,,,,,,
1736676452969,,,,,,,1.414687,3.327128,9.115883,,,,,,,,,,,,
1736676452979,,,,,,,1.4263,3.329459,9.113221,,,,,,,,,,,,
1736676452990,,,,,,,1.43809,3.335443,9.10918,,,,,,,,,,,,
1736676453000,,,,,,,1.437349,3.331928,9.110582,,,,,,,,,,,,
1736676453009,,,,,,,1.440263,3.329522,9.111001,,,,,,,,,,,,
1736676453019,,,,,,,1.446282,3.336423,9.107523,,,,,,,,,,,,
1736676453029,,,,,,,1.446017,3.335309,9.107971,,,,,,,,,,,,
1736676453039,,,,,,,1.447744,3.332565,9.108702,,,,,,,,,,,,
1736676453049,,,,,,,1.44592,3.335646,9.107863,,,,,,,,,,,,
1736676453059,,,,,,,1.441153,3.328343,9.111291,,,,,,,,,,,,
1736676453069,,,,,,,1.438667,3.324748,9.112995,,,,,,,,,,,,
1736676453080,,,,,,,1.434025,3.313751,9.117732,,,,,,,,,,,,
1736676453089,,,,,,,1.430743,3.30342,9.121995,,,,,,,,,,,,
1736676453099,,,,,,,1.429667,3.297482,9.124312,,,,,,,,,,,,
1736676453109,,,,,,,1.429639,3.287717,9.127841,,,,,,,,,,,,
1736676453119,,,,,,,1.416851,3.284952,9.130828,,,,,,,,,,,,
1736676453131,,,,,,,1.410862,3.280111,9.133496,,,,,,,,,,,,
1736676453141,,,,,,,1.388884,3.257687,9.144885,,,,,,,,,,,,
1736676453150,,,,,,,1.368384,3.250345,9.150584,,,,,,,,,,,,
1736676453160,,,,,,,1.35901,3.222748,9.161735,,,,,,,,,,,,
1736676453170,,,,,,,1.345128,3.203287,9.170604,,,,,,,,,,,,
1736676453180,,,,,,,1.337925,3.187594,9.177123,,,,,,,,,,,,
1736676453190,,,,,,,1.331705,3.168044,9.184796,,,,,,,,,,,,
1736676453200,,,,,,,1.321292,3.162453,9.188224,,,,,,,,,,,,
1736676453210,,,,,,,1.308181,3.154489,9.192839,,,,,,,,,,,,
1736676453220,,,,,,,1.309637,3.140999,9.197249,,,,,,,,,,,,
1736676453231,,,,,,,1.302784,3.136684,9.199696,,,,,,,,,,,,
1736676453241,,,,,,,1.317811,3.121082,9.202859,,,,,,,,,,,,
1736676453251,,,,,,,1.329802,3.108049,9.205544,,,,,,,,,,,,
1736676453261,,,,,,,1.33361,3.098913,9.208073,,,,,,,,,,,,
1736676453271,,,,,,,1.344194,3.091122,9.209155,,,,,,,,,,,,
1736676453281,,,,,,,1.323873,3.079815,9.215885,,,,,,,,,,,,
1736676453290,,,,,,,1.317117,3.073852,9.218842,,,,,,,,,,,,
1736676453300,,,,,,,1.299958,3.063922,9.224582,,,,,,,,,,,,
1736676453310,,,,,,,1.279768,3.050262,9.23193,,,,,,,,,,,,
1736676453320,,,,,,,1.265712,3.041274,9.236833,,,,,,,,,,,,
1736676453331,,,,,,,1.243667,3.033887,9.242255,,,,,,,,,,,,
1736676453341,,,,,,,1.215285,3.033115,9.246285,,,,,,,,,,,,
1736676453351,,,,,,,1.196996,3.029847,9.249743,,,,,,,,,,,,
1736676453361,,,,,,,1.155713,3.042282,9.25091,,,,,,,,,,,,
1736676453371,,,,,,,1.126284,3.053537,9.250833,,,,,,,,,,,,
1736676453381,,,,,,,1.094152,3.063883,9.251268,,,,,,,,,,,,
1736676453391,,,,,,,1.062451,3.07476,9.251352,,,,,,,,,,,,
1736676453401,,,,,,,1.041661,3.080389,9.251844,,,,,,,,,,,,
1736676453411,,,,,,,1.016331,3.083433,9.253649,,,,,,,,,,,,
1736676453421,,,,,,,0.99394,3.084842,9.255611,,,,,,,,,,,,
1736676453431,,,,,,,0.975348,3.083987,9.257874,,,,,,,,,,,,
1736676453441,,,,,,,0.949673,3.091617,9.257999,,,,,,,,,,,,
1736676453451,,,,,,,0.928062,3.094583,9.259198,,,,,,,,,,,,
1736676453461,,,,,,,0.900723,3.105572,9.258222,,,,,,,,,,,,
1736676453471,,,,,,,0.879402,3.111855,9.25816,,,,,,,,,,,,
1736676453481,,,,,,,0.847503,3.116866,9.259446,,,,,,,,,,,,
1736676453491,,,,,,,0.826679,3.124993,9.25859,,,,,,,,,,,,
1736676453501,,,,,,,0.813115,3.129762,9.258179,,,,,,,,,,,,
1736676453511,,,,,,,0.796218,3.136146,9.257485,,,,,,,,,,,,
1736676453521,,,,,,,0.783586,3.140105,9.257222,,,,,,,,,,,,
1736676453531,,,,,,,0.778191,3.143329,9.256584,,,,,,,,,,,,
1736676453541,,,,,,,0.760278,3.148972,9.256151,,,,,,,,,,,,
1736676453551,,,,,,,0.745091,3.154777,9.255412,,,,,,,,,,,,
1736676453561,,,,,,,0.724375,3.159141,9.255569,,,,,,,,,,,,
1736676453571,,,,,,,0.705567,3.161988,9.256051,,,,,,,,,,,,
1736676453581,,,,,,,0.679924,3.16569,9.256704,,,,,,,,,,,,
1736676453592,,,,,,,0.656372,3.166464,9.258142,,,,,,,,,,,,
1736676453603,,,,,,,0.627406,3.16438,9.260862,,,,,,,,,,,,
1736676453612,,,,,,,0.59893,3.1648,9.262607,,,,,,,,,,,,
1736676453622,,,,,,,0.571411,3.161572,9.265447,,,,,,,,,,,,
1736676453633,,,,,,,0.542951,3.163157,9.266619,,,,,,,,,,,,
1736676453643,,,,,,,0.510972,3.163753,9.268234,,,,,,,,,,,,
1736676453652,,,,,,,0.49129,3.16197,9.269902,,,,,,,,,,,,
1736676453663,,,,,,,0.456396,3.176645,9.266667,,,,,,,,,,,,
1736676453673,,,,,,,0.432576,3.18233,9.265858,,,,,,,,,,,,
1736676453683,,,,,,,0.405485,3.202013,9.260299,,,,,,,,,,,,
1736676453692,,,,,,,0.38403,3.217274,9.255923,,,,,,,,,,,,
1736676453702,,,,,,,0.363882,3.231861,9.251653,,,,,,,,,,,,
1736676453713,,,,,,,0.343561,3.245252,9.247744,,,,,,,,,,,,
1736676453723,,,,,,,0.323016,3.246076,9.248196,,,,,,,,,,,,
1736676453732,,,,,,,0.301902,3.24909,9.247852,,,,,,,,,,,,
1736676453742,,,,,,,0.278903,3.241721,9.251159,,,,,,,,,,,,
1736676453753,,,,,,,0.262815,3.236321,9.25352,,,,,,,,,,,,
1736676453763,,,,,,,0.250837,3.229245,9.256323,,,,,,,,,,,,
1736676453772,,,,,,,0.244931,3.221657,9.259123,,,,,,,,,,,,
1736676453782,,,,,,,0.238712,3.22435,9.258348,,,,,,,,,,,,
1736676453792,,,,,,,0.231192,3.228132,9.257219,,,,,,,,,,,,
1736676453802,,,,,,,0.222352,3.232729,9.255832,,,,,,,,,,,,
1736676453813,,,,,,,0.214519,3.240491,9.253304,,,,,,,,,,,,
1736676453823,,,,,,,0.199121,3.249966,9.250323,,,,,,,,,,,,
1736676453832,,,,,,,0.188168,3.25747,9.247912,,,,,,,,,,,,
1736676453843,,,,,,,0.178183,3.266136,9.245052,,,,,,,,,,,,
1736676453854,,,,,,,0.167536,3.271407,9.243389,,,,,,,,,,,,
1736676453864,,,,,,,0.159602,3.283459,9.239255,,,,,,,,,,,,
1736676453873,,,,,,,0.154553,3.287946,9.237744,,,,,,,,,,,,
1736676453883,,,,,,,0.142894,3.296126,9.235018,,,,,,,,,,,,
1736676453893,,,,,,,0.131428,3.304202,9.232302,,,,,,,,,,,,
1736676453903,,,,,,,0.118023,3.302508,9.233089,,,,,,,,,,,,
1736676453914,,,,,,,0.106525,3.30408,9.232668,,,,,,,,,,,,
1736676453924,,,,,,,0.098327,3.298092,9.234897,,,,,,,,,,,,
1736676453933,,,,,,,0.09516,3.295449,9.235874,,,,,,,,,,,,
1736676453943,,,,,,,0.093256,3.289528,9.238004,,,,,,,,,,,,
1736676453953,,,,,,,0.09178,3.288239,9.238476,,,,,,,,,,,,
1736676453963,,,,,,,0.097565,3.287263,9.238764,,,,,,,,,,,,
1736676453973,,,,,,,0.101317,3.283907,9.239919,,,,,,,,,,,,
1736676453983,,,,,,,0.095987,3.2856,9.239374,,,,,,,,,,,,
1736676453993,,,,,,,0.09327,3.287768,9.238629,,,,,,,,,,,,
1736676454003,,,,,,,0.08533,3.290128,9.237865,,,,,,,,,,,,
1736676454013,,,,,,,0.083688,3.290439,9.237771,,,,,,,,,,,,
1736676454023,,,,,,,0.080895,3.29189,9.237279,,,,,,,,,,,,
1736676454033,,,,,,,0.074534,3.292688,9.237047,,,,,,,,,,,,
1736676454043,,,,,,,0.079453,3.27999,9.241524,,,,,,,,,,,,
1736676454053,,,,,,,0.078716,3.276176,9.242882,,,,,,,,,,,,
1736676454063,,,,,,,0.078151,3.265097,9.246807,,,,,,,,,,,,
1736676454074,,,,,,,0.084336,3.25166,9.251486,,,,,,,,,,,,
1736676454084,,,,,,,0.080712,3.239733,9.255702,,,,,,,,,,,,
1736676454094,,,,,,,0.075869,3.230589,9.258939,,,,,,,,,,,,
1736676454104,,,,,,,0.082063,3.218195,9.263201,,,,,,,,,,,,
1736676454114,,,,,,,0.078439,3.207879,9.266809,,,,,,,,,,,,
1736676454124,,,,,,,0.080187,3.202582,9.268627,,,,,,,,,,,,
1736676454134,,,,,,,0.081927,3.193433,9.271769,,,,,,,,,,,,
1736676454144,,,,,,,0.070172,3.189475,9.273225,,,,,,,,,,,,
1736676454155,,,,,,,0.066164,3.187178,9.274045,,,,,,,,,,,,
1736676454164,,,,,,,0.067955,3.179827,9.276554,,,,,,,,,,,,
1736676454175,,,,,,,0.069071,3.17289,9.278921,,,,,,,,,,,,
1736676454185,,,,,,,0.079519,3.168016,9.280502,,,,,,,,,,,,
1736676454194,,,,,,,0.085699,3.164965,9.281488,,,,,,,,,,,,
1736676454204,,,,,,,0.085991,3.158708,9.283618,,,,,,,,,,,,
1736676454215,,,,,,,0.090624,3.155353,9.284714,,,,,,,,,,,,
1736676454225,,,,,,,0.0871,3.148467,9.287086,,,,,,,,,,,,
1736676454234,,,,,,,0.088451,3.140684,9.289707,,,,,,,,,,,,
1736676454244,,,,,,,0.094637,3.138209,9.290483,,,,,,,,,,,,
1736676454254,,,,,,,0.097283,3.133137,9.292168,,,,,,,,,,,,
1736676454264,,,,,,,0.108132,3.13956,9.289877,,,,,,,,,,,,
1736676454274,,,,,,,0.115992,3.143303,9.288519,,,,,,,,,,,,
1736676454284,,,,,,,0.120248,3.146299,9.287451,,,,,,,,,,,,
1736676454294,,,,,,,0.126264,3.151529,9.285597,,,,,,,,,,,,
1736676454305,,,,,,,0.121336,3.148416,9.286718,,,,,,,,,,,,
1736676454315,,,,,,,0.120397,3.148486,9.286707,,,,,,,,,,,,
1736676454325,,,,,,,0.118023,3.139375,9.289823,,,,,,,,,,,,
1736676454336,,,,,,,0.113003,3.133779,9.291775,,,,,,,,,,,,
1736676454346,,,,,,,0.114162,3.127496,9.293876,,,,,,,,,,,,
1736676454355,,,,,,,0.110723,3.11935,9.296655,,,,,,,,,,,,
1736676454365,,,,,,,0.105825,3.126931,9.294165,,,,,,,,,,,,
1736676454376,,,,,,,0.095942,3.127682,9.294022,,,,,,,,,,,,
1736676454386,,,,,,,0.077987,3.130304,9.293306,,,,,,,,,,,,
1736676454396,,,,,,,0.061417,3.136386,9.291382,,,,,,,,,,,,
1736676454406,,,,,,,0.038697,3.137145,9.291247,,,,,,,,,,,,
1736676454416,,,,,,,0.023943,3.136346,9.291565,,,,,,,,,,,,
1736676454426,,,,,,,0.004387,3.141498,9.289853,,,,,,,,,,,,
1736676454436,,,,,,,-0.010972,3.146996,9.287987,,,,,,,,,,,,
1736676454446,,,,,,,-0.020767,3.159045,9.283878,,,,,,,,,,,,
1736676454455,,,,,,,-0.025739,3.160881,9.283241,,,,,,,,,,,,
1736676454465,,,,,,,-0.032256,3.163349,9.28238,,,,,,,,,,,,
1736676454475,,,,,,,-0.037804,3.172978,9.279072,,,,,,,,,,,,
1736676454485,,,,,,,-0.042725,3.171644,9.279505,,,,,,,,,,,,
1736676454496,,,,,,,-0.039484,3.176861,9.277738,,,,,,,,,,,,
1736676454506,,,,,,,-0.028626,3.181396,9.276223,,,,,,,,,,,,
1736676454516,,,,,,,-0.020251,3.178287,9.27731,,,,,,,,,,,,
1736676454526,,,,,,,-0.019903,3.188572,9.273783,,,,,,,,,,,,
1736676454535,,,,,,,-0.009518,3.191432,9.272817,,,,,,,,,,,,
1736676454546,,,,,,,0.014954,3.196779,9.270969,,,,,,,,,,,,
1736676454557,,,,,,,0.030974,3.195446,9.271391,,,,,,,,,,,,
1736676454567,,,,,,,0.059865,3.188132,9.273765,,,,,,,,,,,,
1736676454576,,,,,,,0.074637,3.184761,9.274815,,,,,,,,,,,,
1736676454586,,,,,,,0.086933,3.167102,9.28075,,,,,,,,,,,,
1736676454597,,,,,,,0.092548,3.153433,9.28535,,,,,,,,,,,,
1736676454607,,,,,,,0.08504,3.13329,9.292237,,,,,,,,,,,,
1736676454617,,,,,,,0.080058,3.118043,9.297409,,,,,,,,,,,,
1736676454627,,,,,,,0.066635,3.095906,9.304909,,,,,,,,,,,,
1736676454636,,,,,,,0.061574,3.078293,9.310784,,,,,,,,,,,,
1736676454646,,,,,,,0.053308,3.065568,9.315034,,,,,,,,,,,,
1736676454656,,,,,,,0.046791,3.0572,9.317818,,,,,,,,,,,,
1736676454666,,,,,,,0.047722,3.046116,9.321443,,,,,,,,,,,,
1736676454677,,,,,,,0.049672,3.042988,9.322453,,,,,,,,,,,,
1736676454687,,,,,,,0.061589,3.042325,9.322599,,,,,,,,,,,,
1736676454696,,,,,,,0.072843,3.037601,9.324061,,,,,,,,,,,,
1736676454706,,,,,,,0.086215,3.047281,9.320787,,,,,,,,,,,,
1736676454717,,,,,,,0.092099,3.051103,9.319478,,,,,,,,,,,,
1736676454727,,,,,,,0.098158,3.055227,9.318065,,,,,,,,,,,,
1736676454736,,,,,,,0.098915,3.060285,9.316398,,,,,,,,,,,,
1736676454746,,,,,,,0.098115,3.056874,9.317526,,,,,,,,,,,,
1736676454757,,,,,,,0.106087,3.053929,9.318403,,,,,,,,,,,,
1736676454767,,,,,,,0.103622,3.052508,9.318898,,,,,,,,,,,,
1736676454777,,,,,,,0.107368,3.047401,9.320527,,,,,,,,,,,,
1736676454787,,,,,,,0.117536,3.038187,9.323412,,,,,,,,,,,,
1736676454798,,,,,,,0.120734,3.031698,9.325481,,,,,,,,,,,,
1736676454808,,,,,,,0.138242,3.015689,9.330428,,,,,,,,,,,,
1736676454817,,,,,,,0.148165,3.003263,9.334284,,,,,,,,,,,,
1736676454827,,,,,,,0.155984,3.002007,9.334561,,,,,,,,,,,,
1736676454837,,,,,,,0.157744,2.99791,9.335848,,,,,,,,,,,,
1736676454847,,,,,,,0.151317,2.996433,9.336429,,,,,,,,,,,,
1736676454858,,,,,,,0.155891,2.997866,9.335892,,,,,,,,,,,,
1736676454867,,,,,,,0.147318,2.994772,9.337024,,,,,,,,,,,,
1736676454877,,,,,,,0.144779,2.992677,9.337735,,,,,,,,,,,,
1736676454887,,,,,,,0.153828,2.988904,9.338801,,,,,,,,,,,,
1736676454898,,,,,,,0.153742,2.986647,9.339522,,,,,,,,,,,,
1736676454908,,,,,,,0.165004,2.986691,9.339317,,,,,,,,,,,,
1736676454917,,,,,,,0.171713,2.985612,9.339541,,,,,,,,,,,,
1736676454927,,,,,,,0.171366,2.98741,9.338972,,,,,,,,,,,,
1736676454937,,,,,,,0.174424,2.986761,9.339124,,,,,,,,,,,,
1736676454947,,,,,,,0.164028,2.984506,9.340032,,,,,,,,,,,,
1736676454957,,,,,,,0.158479,2.983872,9.340331,,,,,,,,,,,,
1736676454967,,,,,,,0.15965,2.976756,9.34258,,,,,,,,,,,,
1736676454977,,,,,,,0.156242,2.972252,9.344072,,,,,,,,,,,,
1736676454987,,,,,,,0.171916,2.966177,9.345727,,,,,,,,,,,,
1736676454997,,,,,,,0.181732,2.959105,9.347784,,,,,,,,,,,,
1736676455008,,,,,,,0.191842,2.960551,9.347125,,,,,,,,,,,,
1736676455018,,,,,,,0.20262,2.96244,9.346298,,,,,,,,,,,,
1736676455028,,,,,,,0.209659,2.964796,9.345396,,,,,,,,,,,,
1736676455039,,,,,,,0.217972,2.968479,9.344036,,,,,,,,,,,,
1736676455049,,,,,,,0.230068,2.969936,9.343283,,,,,,,,,,,,
1736676455059,,,,,,,0.239557,2.972119,9.342351,,,,,,,,,,,,
1736676455069,,,,,,,0.254117,2.966548,9.343736,,,,,,,,,,,,
1736676455079,,,,,,,0.267466,2.963812,9.344234,,,,,,,,,,,,
1736676455089,,,,,,,0.283211,2.962922,9.344051,,,,,,,,,,,,
1736676455099,,,,,,,0.297313,2.961413,9.344092,,,,,,,,,,,,
1736676455109,,,,,,,0.30973,2.966084,9.342205,,,,,,,,,,,,
1736676455118,,,,,,,0.314245,2.971207,9.340426,,,,,,,,,,,,
1736676455128,,,,,,,0.312848,2.975188,9.339207,,,,,,,,,,,,
1736676455138,,,,,,,0.316941,2.975527,9.33896,,,,,,,,,,,,
1736676455148,,,,,,,0.316008,2.97351,9.339634,,,,,,,,,,,,
1736676455158,,,,,,,0.318559,2.970474,9.340515,,,,,,,,,,,,
1736676455168,,,,,,,0.330748,2.971623,9.339725,,,,,,,,,,,,
1736676455179,,,,,,,0.334365,2.971248,9.339716,,,,,,,,,,,,
1736676455189,,,,,,,0.343418,2.971851,9.339195,,,,,,,,,,,,
1736676455198,,,,,,,0.348006,2.977186,9.337325,,,,,,,,,,,,
1736676455208,,,,,,,0.350828,2.97813,9.33692,,,,,,,,,,,,
1736676455218,,,,,,,0.360159,2.978993,9.336287,,,,,,,,,,,,
1736676455228,,,,,,,0.363373,2.984024,9.334557,,,,,,,,,,,,
1736676455238,,,,,,,0.37088,2.985749,9.333712,,,,,,,,,,,,
1736676455249,,,,,,,0.383726,2.988073,9.332447,,,,,,,,,,,,
1736676455259,,,,,,,0.386038,2.990567,9.331553,,,,,,,,,,,,
1736676455269,,,,,,,0.394703,2.985032,9.332962,,,,,,,,,,,,
1736676455280,,,,,,,0.399632,2.982121,9.333683,,,,,,,,,,,,
1736676455290,,,,,,,0.401694,2.975414,9.335735,,,,,,,,,,,,
1736676455299,,,,,,,0.40854,2.967542,9.337943,,,,,,,,,,,,
1736676455309,,,,,,,0.411607,2.969804,9.337089,,,,,,,,,,,,
1736676455319,,,,,,,0.414257,2.969406,9.337099,,,,,,,,,,,,
1736676455329,,,,,,,0.42501,2.979329,9.333452,,,,,,,,,,,,
1736676455339,,,,,,,0.430042,2.987161,9.33072,,,,,,,,,,,,
1736676455349,,,,,,,0.432898,2.992882,9.328753,,,,,,,,,,,,
1736676455360,,,,,,,0.438033,3.002744,9.325344,,,,,,,,,,,,
1736676455370,,,,,,,0.435769,3.003047,9.325353,,,,,,,,,,,,
1736676455379,,,,,,,0.432608,3.002761,9.325592,,,,,,,,,,,,
1736676455389,,,,,,,0.429178,2.999055,9.326944,,,,,,,,,,,,
1736676455399,,,,,,,0.424888,2.993873,9.328806,,,,,,,,,,,,
1736676455409,,,,,,,0.417505,2.98608,9.331634,,,,,,,,,,,,
1736676455420,,,,,,,0.410367,2.979209,9.334147,,,,,,,,,,,,
1736676455430,,,,,,,0.401226,2.973883,9.336243,,,,,,,,,,,,
1736676452448,,,,,,,,,,-0.2627625,-0.445225,-0.1667875,,,,,,,,,
1736676452458,,,,,,,,,,-0.24365,-0.511225,-0.1423125,,,,,,,,,
1736676452468,,,,,,,,,,-0.21175,-0.5537125,-0.1348875,,,,,,,,,
1736676452478,,,,,,,,,,-0.17875,-0.5974375,-0.146575,,,,,,,,,
1736676452487,,,,,,,,,,-0.14575,-0.6549125,-0.164725,,,,,,,,,
1736676452497,,,,,,,,,,-0.117975,-0.69107497,-0.1871375,,,,,,,,,
1736676452508,,,,,,,,,,-0.089237496,-0.6771875,-0.21573749,,,,,,,,,
1736676452518,,,,,,,,,,-0.0488125,-0.6293375,-0.261525,,,,,,,,,
1736676452527,,,,,,,,,,0.0022,-0.610225,-0.3073125,,,,,,,,,
1736676452537,,,,,,,,,,0.0543125,-0.639925,-0.3339875,,,,,,,,,
1736676452547,,,,,,,,,,0.0906125,-0.71555,-0.345675,,,,,,,,,
1736676452557,,,,,,,,,,0.095837496,-0.8017625,-0.345675,,,,,,,,,
1736676452567,,,,,,,,,,0.0639375,-0.8655625,-0.3425125,,,,,,,,,
1736676452577,,,,,,,,,,0.010725,-0.92193747,-0.34347498,,,,,,,,,
1736676452587,,,,,,,,,,-0.053075,-0.96236247,-0.34347498,,,,,,,,,
1736676452597,,,,,,,,,,-0.117975,-0.96029997,-0.3403125,,,,,,,,,
1736676452607,,,,,,,,,,-0.183975,-0.9134125,-0.326425,,,,,,,,,
1736676452617,,,,,,,,,,-0.252175,-0.8294,-0.30621248,,,,,,,,,
1736676452627,,,,,,,,,,-0.30965,-0.7921375,-0.280775,,,,,,,,,
1736676452637,,,,,,,,,,-0.350075,-0.8091875,-0.246675,,,,,,,,,
1736676452647,,,,,,,,,,-0.37235,-0.80808747,-0.2179375,,,,,,,,,
1736676452657,,,,,,,,,,-0.367125,-0.7984625,-0.1881,,,,,,,,,
1736676452668,,,,,,,,,,-0.3383875,-0.802725,-0.1584,,,,,,,,,
1736676452678,,,,,,,,,,-0.298925,-0.8102875,-0.132825,,,,,,,,,
1736676452688,,,,,,,,,,-0.25959998,-0.8091875,-0.115775,,,,,,,,,
1736676452698,,,,,,,,,,-0.22659999,-0.8188125,-0.116875,,,,,,,,,
1736676452708,,,,,,,,,,-0.203225,-0.8496125,-0.132825,,,,,,,,,
1736676452718,,,,,,,,,,-0.1808125,-0.91245,-0.1508375,,,,,,,,,
1736676452728,,,,,,,,,,-0.1563375,-0.99756247,-0.1626625,,,,,,,,,
1736676452738,,,,,,,,,,-0.1307625,-1.083775,-0.1615625,,,,,,,,,
1736676452749,,,,,,,,,,-0.1073875,-1.1826375,-0.14135,,,,,,,,,
1736676452759,,,,,,,,,,-0.0946,-1.2923625,-0.1018875,,,,,,,,,
1736676452769,,,,,,,,,,-0.0977625,-1.3572625,-0.0625625,,,,,,,,,
1736676452779,,,,,,,,,,-0.1010625,-1.2764125,-0.04015,,,,,,,,,
1736676452788,,,,,,,,,,-0.104225,-1.0272624,-0.0358875,,,,,,,,,
1736676452798,,,,,,,,,,-0.104225,-0.6920375,-0.041249998,,,,,,,,,
1736676452808,,,,,,,,,,-0.104225,-0.38775,-0.0455125,,,,,,,,,
1736676452818,,,,,,,,,,-0.104225,-0.1940125,-0.04235,,,,,,,,,
1736676452828,,,,,,,,,,-0.1073875,-0.1216875,-0.033825,,,,,,,,,
1736676452838,,,,,,,,,,-0.1159125,-0.1441,-0.0253,,,,,,,,,
1736676452848,,,,,,,,,,-0.122237496,-0.214225,-0.018975,,,,,,,,,
1736676452858,,,,,,,,,,-0.120175,-0.282425,-0.0232375,,,,,,,,,
1736676452868,,,,,,,,,,-0.11055,-0.3174875,-0.0317625,,,,,,,,,
1736676452878,,,,,,,,,,-0.095699996,-0.2844875,-0.034925,,,,,,,,,
1736676452889,,,,,,,,,,-0.0851125,-0.1865875,-0.0284625,,,,,,,,,
1736676452900,,,,,,,,,,-0.072325,-0.0653125,-0.0199375,,,,,,,,,
1736676452909,,,,,,,,,,-0.055275,0.014575,-0.014712499,,,,,,,,,
1736676452919,,,,,,,,,,-0.0424875,0.0336875,-0.016775,,,,,,,,,
1736676452930,,,,,,,,,,-0.039325,-0.0132,-0.0242,,,,,,,,,
1736676452940,,,,,,,,,,-0.039325,-0.09405,-0.04015,,,,,,,,,
1736676452949,,,,,,,,,,-0.045649998,-0.1557875,-0.064625,,,,,,,,,
1736676452959,,,,,,,,,,-0.0499125,-0.1802625,-0.0891,,,,,,,,,
1736676452969,,,,,,,,,,-0.047849998,-0.165275,-0.114675,,,,,,,,,
1736676452979,,,,,,,,,,-0.0510125,-0.1291125,-0.1359875,,,,,,,,,
1736676452990,,,,,,,,,,-0.0573375,-0.1142625,-0.1445125,,,,,,,,,
1736676453000,,,,,,,,,,-0.0616,-0.1280125,-0.1348875,,,,,,,,,
1736676453009,,,,,,,,,,-0.0647625,-0.148225,-0.113575,,,,,,,,,
1736676453019,,,,,,,,,,-0.0680625,-0.134475,-0.082775,,,,,,,,,
1736676453029,,,,,,,,,,-0.0743875,-0.0748,-0.0477125,,,,,,,,,
1736676453039,,,,,,,,,,-0.0818125,-0.0132,-0.0242,,,,,,,,,
1736676453049,,,,,,,,,,-0.08085,0.0155375,-0.018975,,,,,,,,,
1736676453059,,,,,,,,,,-0.07865,0.0231,-0.0284625,,,,,,,,,
1736676453070,,,,,,,,,,-0.07865,0.0155375,-0.051975,,,,,,,,,
1736676453080,,,,,,,,,,-0.086075,-0.003575,-0.0796125,,,,,,,,,
1736676453090,,,,,,,,,,-0.0999625,-0.02695,-0.100925,,,,,,,,,
1736676453100,,,,,,,,,,-0.117975,-0.044,-0.1093125,,,,,,,,,
1736676453110,,,,,,,,,,-0.135025,-0.0419375,-0.10835,,,,,,,,,
1736676453120,,,,,,,,,,-0.1478125,-0.015262499,-0.0955625,,,,,,,,,
1736676453131,,,,,,,,,,-0.152075,0.0240625,-0.07315,,,,,,,,,
1736676453141,,,,,,,,,,-0.14355,0.045375,-0.0529375,,,,,,,,,
1736676453150,,,,,,,,,,-0.1287,0.0411125,-0.0466125,,,,,,,,,
1736676453160,,,,,,,,,,-0.11385,0.0262625,-0.049775,,,,,,,,,
1736676453170,,,,,,,,,,-0.103125,0.0209,-0.0529375,,,,,,,,,
1736676453180,,,,,,,,,,-0.0988625,0.029424999,-0.049775,,,,,,,,,
1736676453190,,,,,,,,,,-0.0946,0.0507375,-0.0369875,,,,,,,,,
1736676453200,,,,,,,,,,-0.086075,0.0826375,-0.0125124995,,,,,,,,,
1736676453210,,,,,,,,,,-0.087175,0.1145375,0.0066,,,,,,,,,
1736676453220,,,,,,,,,,-0.089375,0.1315875,0.017324999,,,,,,,,,
1736676453231,,,,,,,,,,-0.0818125,0.1167375,0.0077,,,,,,,,,
1736676453241,,,,,,,,,,-0.0732875,0.088,-0.018975,,,,,,,,,
1736676453251,,,,,,,,,,-0.0638,0.080575,-0.050875,,,,,,,,,
1736676453261,,,,,,,,,,-0.053075,0.0900625,-0.0785125,,,,,,,,,
1736676453270,,,,,,,,,,-0.04455,0.0985875,-0.0881375,,,,,,,,,
1736676453280,,,,,,,,,,-0.037125,0.0911625,-0.082775,,,,,,,,,
1736676453290,,,,,,,,,,-0.0339625,0.0730125,-0.0603625,,,,,,,,,
1736676453300,,,,,,,,,,-0.037125,0.079475,-0.034925,,,,,,,,,
1736676453310,,,,,,,,,,-0.04675,0.1315875,-0.016775,,,,,,,,,
1736676453320,,,,,,,,,,-0.0488125,0.19965,-0.00715,,,,,,,,,
1736676453331,,,,,,,,,,-0.0413875,0.2486,-0.0050875,,,,,,,,,
1736676453341,,,,,,,,,,-0.0265375,0.26675,-0.0061875,,,,,,,,,
1736676453351,,,,,,,,,,-0.0031625,0.2721125,-0.001925,,,,,,,,,
1736676453361,,,,,,,,,,0.025575,0.2688125,0.015125,,,,,,,,,
1736676453371,,,,,,,,,,0.0565125,0.2539625,0.031075,,,,,,,,,
1736676453381,,,,,,,,,,0.0735625,0.24007499,0.0427625,,,,,,,,,
1736676453392,,,,,,,,,,0.074525,0.2316875,0.048125,,,,,,,,,
1736676453402,,,,,,,,,,0.0702625,0.241175,0.0416625,,,,,,,,,
1736676453411,,,,,,,,,,0.052249998,0.26785,0.031075,,,,,,,,,
1736676453421,,,,,,,,,,0.0320375,0.2816,0.02365,,,,,,,,,
1736676453431,,,,,,,,,,0.012925,0.276375,0.02475,,,,,,,,,
1736676453441,,,,,,,,,,0.0053625,0.2721125,0.0268125,,,,,,,,,
1736676453451,,,,,,,,,,0.0033,0.2827,0.0290125,,,,,,,,,
1736676453461,,,,,,,,,,0.0033,0.289025,0.029975,,,,,,,,,
1736676453471,,,,,,,,,,0.0011,0.2838,0.0257125,,,,,,,,,
1736676453481,,,,,,,,,,1.375E-4,0.260425,0.0193875,,,,,,,,,
1736676453491,,,,,,,,,,0.0044,0.2209625,0.0108624995,,,,,,,,,
1736676453501,,,,,,,,,,0.010725,0.1953875,-0.0039875,,,,,,,,,
1736676453511,,,,,,,,,,0.01705,0.1720125,-0.0264,,,,,,,,,
1736676453521,,,,,,,,,,0.0235125,0.1390125,-0.0477125,,,,,,,,,
1736676453531,,,,,,,,,,0.0309375,0.112475,-0.0583,,,,,,,,,
1736676453541,,,,,,,,,,0.0331375,0.117699996,-0.049775,,,,,,,,,
1736676453551,,,,,,,,,,0.0352,0.1529,-0.036025,,,,,,,,,
1736676453561,,,,,,,,,,0.0341,0.192225,-0.00935,,,,,,,,,
1736676453571,,,,,,,,,,0.025575,0.2146375,0.0193875,,,,,,,,,
1736676453581,,,,,,,,,,0.012925,0.23485,0.0427625,,,,,,,,,
1736676453592,,,,,,,,,,0.0053625,0.26455,0.0587125,,,,,,,,,
1736676453603,,,,,,,,,,0.0075625,0.290125,0.062975,,,,,,,,,
1736676453612,,,,,,,,,,0.01705,0.3125375,0.0609125,,,,,,,,,
1736676453622,,,,,,,,,,0.0331375,0.340175,0.054449998,,,,,,,,,
1736676453633,,,,,,,,,,0.0457875,0.3529625,0.0449625,,,,,,,,,
1736676453643,,,,,,,,,,0.0554125,0.3370125,0.0342375,,,,,,,,,
1736676453653,,,,,,,,,,0.0576125,0.309375,0.0182875,,,,,,,,,
1736676453663,,,,,,,,,,0.0554125,0.274175,0.0077,,,,,,,,,
1736676453673,,,,,,,,,,0.0543125,0.23485,0.0066,,,,,,,,,
1736676453683,,,,,,,,,,0.052249998,0.192225,0.013062499,,,,,,,,,
1736676453692,,,,,,,,,,0.050049998,0.16665,0.0279125,,,,,,,,,
1736676453702,,,,,,,,,,0.0405625,0.17847499,0.0427625,,,,,,,,,
1736676453713,,,,,,,,,,0.026675,0.2156,0.054449998,,,,,,,,,
1736676453723,,,,,,,,,,0.0075625,0.24653749,0.0598125,,,,,,,,,
1736676453732,,,,,,,,,,-0.01375,0.2624875,0.0620125,,,,,,,,,
1736676453742,,,,,,,,,,-0.0319,0.2519,0.0609125,,,,,,,,,
1736676453752,,,,,,,,,,-0.0402875,0.210375,0.062975,,,,,,,,,
1736676453762,,,,,,,,,,-0.037125,0.1507,0.0661375,,,,,,,,,
1736676453772,,,,,,,,,,-0.0276375,0.110275,0.0672375,,,,,,,,,
1736676453782,,,,,,,,,,-0.01155,0.109175,0.062975,,,,,,,,,
1736676453792,,,,,,,,,,0.009625,0.1188,0.0534875,,,,,,,,,
1736676453802,,,,,,,,,,0.0352,0.1230625,0.0364375,,,,,,,,,
1736676453813,,,,,,,,,,0.0543125,0.1219625,0.02145,,,,,,,,,
1736676453823,,,,,,,,,,0.061875,0.117699996,0.0182875,,,,,,,,,
1736676453832,,,,,,,,,,0.060775,0.115637496,0.02145,,,,,,,,,
1736676453843,,,,,,,,,,0.0490875,0.113437496,0.0279125,,,,,,,,,
1736676453854,,,,,,,,,,0.0309375,0.1007875,0.0342375,,,,,,,,,
1736676453864,,,,,,,,,,0.010725,0.0911625,0.0438625,,,,,,,,,
1736676453873,,,,,,,,,,-0.0083875,0.0996875,0.045925,,,,,,,,,
1736676453883,,,,,,,,,,-0.0243375,0.1241625,0.0416625,,,,,,,,,
1736676453893,,,,,,,,,,-0.0339625,0.144375,0.0353375,,,,,,,,,
1736676453903,,,,,,,,,,-0.0402875,0.142175,0.028875,,,,,,,,,
1736676453914,,,,,,,,,,-0.04455,0.121,0.029975,,,,,,,,,
1736676453924,,,,,,,,,,-0.045649998,0.095425,0.028875,,,,,,,,,
1736676453933,,,,,,,,,,-0.039325,0.06985,0.0193875,,,,,,,,,
1736676453943,,,,,,,,,,-0.0180125,0.0485375,0.0086624995,,,,,,,,,
1736676453953,,,,,,,,,,0.0086624995,0.0325875,-0.0050875,,,,,,,,,
1736676453963,,,,,,,,,,0.0298375,0.0177375,-0.01045,,,,,,,,,
1736676453973,,,,,,,,,,0.043725,0.0188375,-0.0061875,,,,,,,,,
1736676453983,,,,,,,,,,0.0457875,0.030524999,0.0077,,,,,,,,,
1736676453993,,,,,,,,,,0.042625,0.0314875,0.0193875,,,,,,,,,
1736676454003,,,,,,,,,,0.0331375,0.0262625,0.0342375,,,,,,,,,
1736676454013,,,,,,,,,,0.02035,0.022,0.0416625,,,,,,,,,
1736676454023,,,,,,,,,,0.0086624995,0.0251625,0.0438625,,,,,,,,,
1736676454033,,,,,,,,,,0.0011,0.0347875,0.0364375,,,,,,,,,
1736676454043,,,,,,,,,,-0.006325,0.0314875,0.0204875,,,,,,,,,
1736676454053,,,,,,,,,,-0.01485,0.0070125,0.0012375,,,,,,,,,
1736676454063,,,,,,,,,,-0.0265375,-0.0099,-0.01155,,,,,,,,,
1736676454075,,,,,,,,,,-0.036025,-0.015262499,-0.00825,,,,,,,,,
1736676454085,,,,,,,,,,-0.0402875,-0.0163625,0.0044,,,,,,,,,
1736676454094,,,,,,,,,,-0.0413875,-0.0056375,0.0193875,,,,,,,,,
1736676454104,,,,,,,,,,-0.037125,0.0209,0.031075,,,,,,,,,
1736676454114,,,,,,,,,,-0.0276375,0.0517,0.0353375,,,,,,,,,
1736676454124,,,,,,,,,,-0.020075,0.0752125,0.0342375,,,,,,,,,
1736676454134,,,,,,,,,,-0.0158125,0.093225,0.031075,,,,,,,,,
1736676454144,,,,,,,,,,-0.020075,0.0922625,0.0257125,,,,,,,,,
1736676454154,,,,,,,,,,-0.0276375,0.0581625,0.0204875,,,,,,,,,
1736676454164,,,,,,,,,,-0.0308,0.00495,0.0086624995,,,,,,,,,
1736676454175,,,,,,,,,,-0.0339625,-0.0259875,-0.001925,,,,,,,,,
1736676454185,,,,,,,,,,-0.0339625,-0.020624999,-0.0072875,,,,,,,,,
1736676454194,,,,,,,,,,-0.0276375,-0.0015125,-0.00825,,,,,,,,,
1736676454204,,,,,,,,,,-0.022275,0.014575,-8.25E-4,,,,,,,,,
1736676454214,,,,,,,,,,-0.023375,0.0198,0.0055,,,,,,,,,
1736676454224,,,,,,,,,,-0.0254375,0.0103124995,0.014025,,,,,,,,,
1736676454234,,,,,,,,,,-0.0276375,-0.0056375,0.02255,,,,,,,,,
1736676454244,,,,,,,,,,-0.0297,-0.0237875,0.0279125,,,,,,,,,
1736676454254,,,,,,,,,,-0.0286,-0.0386375,0.0257125,,,,,,,,,
1736676454264,,,,,,,,,,-0.0191125,-0.0301125,0.0171875,,,,,,,,,
1736676454274,,,,,,,,,,-0.01155,-0.0056375,0.0066,,,,,,,,,
1736676454284,,,,,,,,,,-0.004125,0.00385,-0.0072875,,,,,,,,,
1736676454294,,,,,,,,,,1.375E-4,-0.003575,-0.018975,,,,,,,,,
1736676454305,,,,,,,,,,0.0022,-0.0174625,-0.0253,,,,,,,,,
1736676454315,,,,,,,,,,0.0075625,-0.021724999,-0.0253,,,,,,,,,
1736676454325,,,,,,,,,,0.011825,-0.018424999,-0.0221375,,,,,,,,,
1736676454336,,,,,,,,,,0.0075625,-0.0132,-0.013612499,,,,,,,,,
1736676454346,,,,,,,,,,0.0022,0.0017875,2.75E-4,,,,,,,,,
1736676454355,,,,,,,,,,0.0044,0.039049998,0.016224999,,,,,,,,,
1736676454365,,,,,,,,,,0.011825,0.0974875,0.029975,,,,,,,,,
1736676454376,,,,,,,,,,0.0138875,0.1656875,0.032175,,,,,,,,,
1736676454386,,,,,,,,,,0.0160875,0.2135375,0.0182875,,,,,,,,,
1736676454396,,,,,,,,,,0.01705,0.2231625,-0.0039875,,,,,,,,,
1736676454406,,,,,,,,,,0.02035,0.1890625,-0.0253,,,,,,,,,
1736676454416,,,,,,,,,,0.01925,0.1571625,-0.036025,,,,,,,,,
1736676454426,,,,,,,,,,0.0053625,0.1390125,-0.0275,,,,,,,,,
1736676454436,,,,,,,,,,-0.0083875,0.095425,-0.00935,,,,,,,,,
1736676454446,,,,,,,,,,-0.0180125,0.0655875,0.0077,,,,,,,,,
1736676454455,,,,,,,,,,-0.0297,0.0666875,0.0171875,,,,,,,,,
1736676454465,,,,,,,,,,-0.0286,0.063525,0.0182875,,,,,,,,,
1736676454475,,,,,,,,,,-0.01485,0.0347875,0.0044,,,,,,,,,
1736676454485,,,,,,,,,,0.011825,-0.0226875,-0.0125124995,,,,,,,,,
1736676454496,,,,,,,,,,0.0457875,-0.0823625,-0.0328625,,,,,,,,,
1736676454506,,,,,,,,,,0.0713625,-0.0908875,-0.0710875,,,,,,,,,
1736676454516,,,,,,,,,,0.0639375,-0.0664125,-0.0966625,,,,,,,,,
1736676454526,,,,,,,,,,0.0298375,-0.103675,-0.0944625,,,,,,,,,
1736676454535,,,,,,,,,,-0.01485,-0.19195,-0.07755,,,,,,,,,
1736676454546,,,,,,,,,,-0.0658625,-0.266475,-0.0605,,,,,,,,,
1736676454556,,,,,,,,,,-0.0988625,-0.2855875,-0.0562375,,,,,,,,,
1736676454566,,,,,,,,,,-0.119075,-0.2440625,-0.0721875,,,,,,,,,
1736676454577,,,,,,,,,,-0.1340625,-0.17379999,-0.091299996,,,,,,,,,
1736676454587,,,,,,,,,,-0.1500125,-0.103675,-0.1062875,,,,,,,,,
1736676454597,,,,,,,,,,-0.1626625,-0.035475,-0.10835,,,,,,,,,
1736676454607,,,,,,,,,,-0.1733875,0.0262625,-0.0955625,,,,,,,,,
1736676454617,,,,,,,,,,-0.17545,0.060225,-0.0699875,,,,,,,,,
1736676454627,,,,,,,,,,-0.1595,0.0592625,-0.043449998,,,,,,,,,
1736676454636,,,,,,,,,,-0.136125,0.0347875,-0.0232375,,,,,,,,,
1736676454646,,,,,,,,,,-0.102025,0.0081124995,-0.0125124995,,,,,,,,,
1736676454656,,,,,,,,,,-0.0627,-0.0089375,-0.017875,,,,,,,,,
1736676454666,,,,,,,,,,-0.0276375,-0.03025,-0.0295625,,,,,,,,,
1736676454677,,,,,,,,,,0.0011,-0.070675,-0.0402875,,,,,,,,,
1736676454687,,,,,,,,,,0.0235125,-0.1131625,-0.041249998,,,,,,,,,
1736676454696,,,,,,,,,,0.0309375,-0.134475,-0.033825,,,,,,,,,
1736676454706,,,,,,,,,,0.0246125,-0.1120625,-0.0210375,,,,,,,,,
1736676454717,,,,,,,,,,0.01815,-0.053625,-0.00935,,,,,,,,,
1736676454727,,,,,,,,,,0.012925,0.014575,-0.003025,,,,,,,,,
1736676454736,,,,,,,,,,0.0033,0.0517,-8.25E-4,,,,,,,,,
1736676454746,,,,,,,,,,-0.01265,0.036849998,1.375E-4,,,,,,,,,
1736676454756,,,,,,,,,,-0.0350625,-0.0121,-0.004125,,,,,,,,,
1736676454766,,,,,,,,,,-0.056375,-0.0578875,-0.0083875,,,,,,,,,
1736676454777,,,,,,,,,,-0.070125,-0.0812625,-0.013612499,,,,,,,,,
1736676454787,,,,,,,,,,-0.07975,-0.09405,-0.016775,,,,,,,,,
1736676454798,,,,,,,,,,-0.088275,-0.104637496,-0.017875,,,,,,,,,
1736676454808,,,,,,,,,,-0.0840125,-0.1111,-0.0264,,,,,,,,,
1736676454817,,,,,,,,,,-0.0669625,-0.0801625,-0.0369875,,,,,,,,,
1736676454827,,,,,,,,,,-0.0488125,-0.020624999,-0.04455,,,,,,,,,
1736676454837,,,,,,,,,,-0.036025,0.0262625,-0.041249998,,,,,,,,,
1736676454847,,,,,,,,,,-0.036025,0.0325875,-0.0295625,,,,,,,,,
1736676454857,,,,,,,,,,-0.038225,0.00275,-0.0158125,,,,,,,,,
1736676454867,,,,,,,,,,-0.0350625,-0.0323125,-0.003025,,,,,,,,,
1736676454878,,,,,,,,,,-0.0276375,-0.061049998,1.375E-4,,,,,,,,,
1736676454888,,,,,,,,,,-0.01485,-0.0834625,-0.001925,,,,,,,,,
1736676454898,,,,,,,,,,-9.625E-4,-0.086625,-0.01155,,,,,,,,,
1736676454908,,,,,,,,,,0.0086624995,-0.0716375,-0.018975,,,,,,,,,
1736676454917,,,,,,,,,,0.0160875,-0.0471625,-0.0275,,,,,,,,,
1736676454927,,,,,,,,,,0.011825,-0.03025,-0.0317625,,,,,,,,,
1736676454937,,,,,,,,,,-0.0020625,-0.021724999,-0.0286,,,,,,,,,
1736676454947,,,,,,,,,,-0.01485,-0.021724999,-0.01155,,,,,,,,,
1736676454957,,,,,,,,,,-0.0254375,-0.0237875,0.0086624995,,,,,,,,,
1736676454967,,,,,,,,,,-0.0328625,-0.02695,0.0257125,,,,,,,,,
1736676454977,,,,,,,,,,-0.0350625,-0.0334125,0.0385,,,,,,,,,
1736676454987,,,,,,,,,,-0.0339625,-0.044,0.0427625,,,,,,,,,
1736676454997,,,,,,,,,,-0.0254375,-0.0471625,0.0385,,,,,,,,,
1736676455008,,,,,,,,,,-0.01485,-0.0323125,0.029975,,,,,,,,,
1736676455018,,,,,,,,,,-0.0031625,-0.02915,0.02145,,,,,,,,,
1736676455028,,,,,,,,,,0.0086624995,-0.0429,0.012925,,,,,,,,,
1736676455039,,,,,,,,,,0.0086624995,-0.061049998,0.0044,,,,,,,,,
1736676455049,,,,,,,,,,0.0022,-0.0749375,-8.25E-4,,,,,,,,,
1736676455059,,,,,,,,,,-0.0094875,-0.0897875,-0.0061875,,,,,,,,,
1736676455069,,,,,,,,,,-0.0180125,-0.106837496,-0.0083875,,,,,,,,,
1736676455079,,,,,,,,,,-0.0169125,-0.12485,-0.004125,,,,,,,,,
1736676455089,,,,,,,,,,-0.004125,-0.134475,0.0023375,,,,,,,,,
1736676455099,,,,,,,,,,0.012925,-0.119625,0.0097624995,,,,,,,,,
1736676455109,,,,,,,,,,0.0331375,-0.0738375,0.0108624995,,,,,,,,,
1736676455118,,,,,,,,,,0.042625,-0.0259875,0.0066,,,,,,,,,
1736676455128,,,,,,,,,,0.0341,-0.005775,0.0055,,,,,,,,,
1736676455138,,,,,,,,,,0.0086624995,-0.019524999,0.0034375,,,,,,,,,
1736676455148,,,,,,,,,,-0.020075,-0.0567875,0.0077,,,,,,,,,
1736676455158,,,,,,,,,,-0.039325,-0.09295,0.0160875,,,,,,,,,
1736676455168,,,,,,,,,,-0.0435875,-0.0908875,0.02035,,,,,,,,,
1736676455179,,,,,,,,,,-0.0286,-0.0589875,0.02145,,,,,,,,,
1736676455189,,,,,,,,,,-0.0083875,-0.03025,0.02255,,,,,,,,,
1736676455198,,,,,,,,,,0.0075625,-0.015262499,0.0171875,,,,,,,,,
1736676455208,,,,,,,,,,0.0149875,-0.0226875,0.0097624995,,,,,,,,,
1736676455218,,,,,,,,,,0.0138875,-0.0471625,0.0055,,,,,,,,,
1736676455228,,,,,,,,,,0.009625,-0.085525,0.0055,,,,,,,,,
1736676455238,,,,,,,,,,0.0022,-0.1122,0.011825,,,,,,,,,
1736676455249,,,,,,,,,,-0.0031625,-0.11,0.0097624995,,,,,,,,,
1736676455259,,,,,,,,,,-0.006325,-0.0812625,0.0012375,,,,,,,,,
1736676455269,,,,,,,,,,-0.01265,-0.0471625,-0.0050875,,,,,,,,,
1736676455280,,,,,,,,,,-0.0191125,-0.0312125,-0.0072875,,,,,,,,,
1736676455290,,,,,,,,,,-0.0286,-0.0334125,-0.00935,,,,,,,,,
1736676455299,,,,,,,,,,-0.0308,-0.044,-0.0083875,,,,,,,,,
1736676455309,,,,,,,,,,-0.022275,-0.05995,-8.25E-4,,,,,,,,,
1736676455319,,,,,,,,,,-0.0094875,-0.0759,0.0077,,,,,,,,,
1736676455329,,,,,,,,,,0.0075625,-0.077,0.012925,,,,,,,,,
1736676455339,,,,,,,,,,0.027775,-0.054725,0.0097624995,,,,,,,,,
1736676455349,,,,,,,,,,0.0394625,-0.037675,0.0012375,,,,,,,,,
1736676455359,,,,,,,,,,0.043725,-0.0334125,-0.0083875,,,,,,,,,
1736676455369,,,,,,,,,,0.0341,-0.0408375,-0.016775,,,,,,,,,
1736676455379,,,,,,,,,,0.01925,-0.0451,-0.0264,,,,,,,,,
1736676455389,,,,,,,,,,1.375E-4,-0.0259875,-0.0317625,,,,,,,,,
1736676455399,,,,,,,,,,-0.022275,0.0070125,-0.0286,,,,,,,,,
1736676455409,,,,,,,,,,-0.038225,0.0336875,-0.020075,,,,,,,,,
1736676455420,,,,,,,,,,-0.04455,0.044275,-0.0061875,,,,,,,,,
1736676455430,,,,,,,,,,-0.0424875,0.0474375,0.0075625,,,,,,,,,
1736676452448,,,,,,,,,,,,,-0.292473,0.082159,0.181638,,,,,,
1736676452458,,,,,,,,,,,,,-0.430348,0.087687,0.206398,,,,,,
1736676452468,,,,,,,,,,,,,-0.015583,0.007378,0.190059,,,,,,
1736676452478,,,,,,,,,,,,,-0.217162,0.109527,0.082116,,,,,,
1736676452487,,,,,,,,,,,,,0.254988,-0.155123,-0.011204,,,,,,
1736676452497,,,,,,,,,,,,,0.030851,-0.017452,0.095941,,,,,,
1736676452508,,,,,,,,,,,,,0.413085,-0.232821,-0.103944,,,,,,
1736676452518,,,,,,,,,,,,,0.20318,-0.220336,-0.191112,,,,,,
1736676452527,,,,,,,,,,,,,0.134911,0.139498,0.187434,,,,,,
1736676452537,,,,,,,,,,,,,0.163035,-0.065909,0.078922,,,,,,
1736676452547,,,,,,,,,,,,,0.032775,0.265961,-0.263169,,,,,,
1736676452557,,,,,,,,,,,,,-0.052022,0.220287,0.044888,,,,,,
1736676452567,,,,,,,,,,,,,0.001603,0.142898,-0.386076,,,,,,
1736676452577,,,,,,,,,,,,,-0.1382,0.140542,-0.40115,,,,,,
1736676452587,,,,,,,,,,,,,0.087391,0.234697,-0.348047,,,,,,
1736676452597,,,,,,,,,,,,,-0.080756,0.151604,-0.357886,,,,,,
1736676452607,,,,,,,,,,,,,0.064022,0.123317,-0.306521,,,,,,
1736676452617,,,,,,,,,,,,,-0.05603,0.204953,-0.460158,,,,,,
1736676452627,,,,,,,,,,,,,0.105243,-0.145719,-0.057117,,,,,,
1736676452637,,,,,,,,,,,,,-0.034041,0.005453,-0.103275,,,,,,
1736676452647,,,,,,,,,,,,,0.038554,-0.13157,0.09781,,,,,,
1736676452657,,,,,,,,,,,,,-0.061077,-0.092718,-0.073412,,,,,,
1736676452668,,,,,,,,,,,,,-0.053109,0.079226,0.162769,,,,,,
1736676452678,,,,,,,,,,,,,-0.134108,0.014568,0.142275,,,,,,
1736676452688,,,,,,,,,,,,,0.162294,0.105934,0.153244,,,,,,
1736676452698,,,,,,,,,,,,,-0.077049,0.152022,0.156846,,,,,,
1736676452708,,,,,,,,,,,,,0.099028,0.080027,0.213307,,,,,,
1736676452718,,,,,,,,,,,,,-0.048667,0.142051,0.163654,,,,,,
1736676452728,,,,,,,,,,,,,-0.006897,-0.039017,0.216135,,,,,,
1736676452738,,,,,,,,,,,,,-0.13454,0.038712,0.157352,,,,,,
1736676452749,,,,,,,,,,,,,0.224864,-0.199745,0.414553,,,,,,
1736676452759,,,,,,,,,,,,,-0.179323,-0.043299,0.30962,,,,,,
1736676452769,,,,,,,,,,,,,0.570397,-0.315529,-0.197064,,,,,,
1736676452779,,,,,,,,,,,,,0.169118,-0.234235,0.21513,,,,,,
1736676452788,,,,,,,,,,,,,0.415572,-0.309072,-0.48472,,,,,,
1736676452798,,,,,,,,,,,,,0.318613,-0.267025,-0.47479,,,,,,
1736676452808,,,,,,,,,,,,,0.013792,-0.244988,-0.098746,,,,,,
1736676452818,,,,,,,,,,,,,0.111761,-0.224803,-0.280235,,,,,,
1736676452828,,,,,,,,,,,,,-0.139215,-0.100171,0.096563,,,,,,
1736676452838,,,,,,,,,,,,,-0.120038,-0.152104,-0.0018,,,,,,
1736676452848,,,,,,,,,,,,,-0.002482,0.11888,0.171005,,,,,,
1736676452858,,,,,,,,,,,,,-0.125613,0.053453,0.140771,,,,,,
1736676452868,,,,,,,,,,,,,0.136319,0.143831,-0.166679,,,,,,
1736676452878,,,,,,,,,,,,,0.01973,0.156253,0.049674,,,,,,
1736676452889,,,,,,,,,,,,,0.0104,-0.004695,-0.195751,,,,,,
1736676452900,,,,,,,,,,,,,0.069001,0.082809,-0.269158,,,,,,
1736676452910,,,,,,,,,,,,,-0.136585,-0.13901,-0.018287,,,,,,
1736676452920,,,,,,,,,,,,,-0.040803,-0.097116,-0.12588,,,,,,
1736676452930,,,,,,,,,,,,,-0.085061,-0.027784,-0.087952,,,,,,
1736676452940,,,,,,,,,,,,,-0.110153,-0.056512,0.062185,,,,,,
1736676452949,,,,,,,,,,,,,-0.002398,0.048018,-0.223168,,,,,,
1736676452959,,,,,,,,,,,,,-0.109017,-0.008802,-0.218383,,,,,,
1736676452969,,,,,,,,,,,,,-0.003383,-0.066931,-0.367408,,,,,,
1736676452979,,,,,,,,,,,,,0.0281,0.00496,-0.319255,,,,,,
1736676452989,,,,,,,,,,,,,-0.108192,-0.036937,-0.092546,,,,,,
1736676452999,,,,,,,,,,,,,-0.114634,-0.064548,-0.230422,,,,,,
1736676453009,,,,,,,,,,,,,-0.07924,0.043205,-0.295486,,,,,,
1736676453019,,,,,,,,,,,,,-0.082864,0.012361,-0.133985,,,,,,
1736676453029,,,,,,,,,,,,,0.003594,0.023052,-0.096125,,,,,,
1736676453039,,,,,,,,,,,,,-0.03644,0.025796,-0.288398,,,,,,
1736676453049,,,,,,,,,,,,,-0.032222,-0.034746,-0.072074,,,,,,
1736676453059,,,,,,,,,,,,,0.001275,0.018047,-0.053954,,,,,,
1736676453070,,,,,,,,,,,,,-0.048912,-0.100466,-0.117909,,,,,,
1736676453080,,,,,,,,,,,,,-0.049059,-0.079891,-0.120252,,,,,,
1736676453090,,,,,,,,,,,,,-0.038594,-0.012098,-0.148457,,,,,,
1736676453100,,,,,,,,,,,,,-0.025546,-0.03968,-0.145986,,,,,,
1736676453110,,,,,,,,,,,,,-0.159599,0.029942,-0.233315,,,,,,
1736676453120,,,,,,,,,,,,,-0.041462,0.032706,-0.195599,,,,,,
1736676453131,,,,,,,,,,,,,-0.183919,-0.106109,0.103412,,,,,,
1736676453141,,,,,,,,,,,,,-0.190672,0.009691,-0.085153,,,,,,
1736676453150,,,,,,,,,,,,,-0.048063,-0.174509,0.186884,,,,,,
1736676453160,,,,,,,,,,,,,-0.110518,-0.101421,0.132637,,,,,,
1736676453170,,,,,,,,,,,,,-0.017624,-0.046045,0.150104,,,,,,
1736676453180,,,,,,,,,,,,,0.008732,-0.10218,0.138796,,,,,,
1736676453190,,,,,,,,,,,,,-0.018567,0.049054,0.064084,,,,,,
1736676453200,,,,,,,,,,,,,-0.012943,0.049856,0.144455,,,,,,
1736676453210,,,,,,,,,,,,,0.167768,-0.025979,0.096744,,,,,,
1736676453220,,,,,,,,,,,,,0.044203,0.042579,-0.008226,,,,,,
1736676453231,,,,,,,,,,,,,0.30485,-0.053665,0.156927,,,,,,
1736676453241,,,,,,,,,,,,,0.273063,-0.038063,0.158552,,,,,,
1736676453250,,,,,,,,,,,,,0.194032,-0.013059,0.143896,,,,,,
1736676453260,,,,,,,,,,,,,0.28839,-0.006316,0.134184,,,,,,
1736676453270,,,,,,,,,,,,,-0.081336,-0.036834,0.262393,,,,,,
1736676453280,,,,,,,,,,,,,0.049121,0.019964,0.200594,,,,,,
1736676453290,,,,,,,,,,,,,-0.104539,-0.086604,0.025249,,,,,,
1736676453300,,,,,,,,,,,,,-0.07062,-0.069492,0.182321,,,,,,
1736676453310,,,,,,,,,,,,,0.064495,-0.029495,0.08399,,,,,,
1736676453320,,,,,,,,,,,,,0.006722,-0.05642,-0.031049,,,,,,
1736676453331,,,,,,,,,,,,,-0.00954,0.099411,0.243659,,,,,,
1736676453341,,,,,,,,,,,,,0.107429,0.02596,0.189349,,,,,,
1736676453351,,,,,,,,,,,,,-0.173567,0.194434,0.205046,,,,,,
1736676453361,,,,,,,,,,,,,-0.050878,0.16045,0.239792,,,,,,
1736676453371,,,,,,,,,,,,,-0.129192,0.053424,0.019596,,,,,,
1736676453381,,,,,,,,,,,,,-0.123397,0.098147,0.134085,,,,,,
1736676453392,,,,,,,,,,,,,-0.017473,-0.063569,-0.17486,,,,,,
1736676453402,,,,,,,,,,,,,-0.027809,-0.04765,-0.084369,,,,,,
1736676453411,,,,,,,,,,,,,0.019069,-0.060271,-0.134059,,,,,,
1736676453421,,,,,,,,,,,,,0.048642,-0.090412,-0.210246,,,,,,
1736676453431,,,,,,,,,,,,,-0.023748,0.058889,-0.10716,,,,,,
1736676453441,,,,,,,,,,,,,0.033052,0.003372,-0.107285,,,,,,
1736676453451,,,,,,,,,,,,,-0.021953,0.112938,-0.084541,,,,,,
1736676453461,,,,,,,,,,,,,0.043694,0.058852,-0.076381,,,,,,
1736676453471,,,,,,,,,,,,,-0.095401,0.071724,0.021845,,,,,,
1736676453481,,,,,,,,,,,,,-0.008434,0.090655,-0.032114,,,,,,
1736676453491,,,,,,,,,,,,,0.057881,0.056191,0.016627,,,,,,
1736676453501,,,,,,,,,,,,,0.002011,0.068182,0.024221,,,,,,
1736676453511,,,,,,,,,,,,,0.033273,0.066586,0.13984,,,,,,
1736676453521,,,,,,,,,,,,,0.089003,0.031502,0.089823,,,,,,
1736676453531,,,,,,,,,,,,,-0.063625,0.025883,-0.002915,,,,,,
1736676453541,,,,,,,,,,,,,0.009356,0.060943,0.090894,,,,,,
1736676453551,,,,,,,,,,,,,-0.035313,-0.007112,-0.0616,,,,,,
1736676453561,,,,,,,,,,,,,-2.31E-4,-0.016265,-0.071334,,,,,,
1736676453571,,,,,,,,,,,,,-0.065223,0.014407,-0.059844,,,,,,
1736676453581,,,,,,,,,,,,,-0.015638,-0.015631,-0.070075,,,,,,
1736676453592,,,,,,,,,,,,,-0.042366,3.55E-4,0.096087,,,,,,
1736676453603,,,,,,,,,,,,,-0.0134,0.009621,0.059845,,,,,,
1736676453612,,,,,,,,,,,,,0.022258,-0.091357,-0.042457,,,,,,
1736676453622,,,,,,,,,,,,,0.033017,-0.028273,0.007376,,,,,,
1736676453633,,,,,,,,,,,,,-0.029505,-0.099292,-0.125481,,,,,,
1736676453643,,,,,,,,,,,,,0.091062,-0.119042,-0.088788,,,,,,
1736676453653,,,,,,,,,,,,,-0.116712,0.086254,-0.104822,,,,,,
1736676453663,,,,,,,,,,,,,-0.031539,-0.02898,-0.10877,,,,,,
1736676453673,,,,,,,,,,,,,-0.113067,0.178426,-0.043314,,,,,,
1736676453683,,,,,,,,,,,,,-0.081188,0.122828,-0.047332,,,,,,
1736676453692,,,,,,,,,,,,,-0.064521,0.069259,-0.205768,,,,,,
1736676453702,,,,,,,,,,,,,-0.027613,0.104951,-0.11291,,,,,,
1736676453712,,,,,,,,,,,,,-0.004898,-0.076038,-0.228714,,,,,,
1736676453722,,,,,,,,,,,,,0.006069,-0.0194,-0.21959,,,,,,
1736676453732,,,,,,,,,,,,,-0.023096,-0.089454,-0.097138,,,,,,
1736676453742,,,,,,,,,,,,,0.009479,-0.084479,-0.186638,,,,,,
1736676453752,,,,,,,,,,,,,-7.69E-4,-0.026405,0.055216,,,,,,
1736676453762,,,,,,,,,,,,,0.025574,-0.050454,0.038048,,,,,,
1736676453772,,,,,,,,,,,,,0.024297,0.076848,0.071163,,,,,,
1736676453782,,,,,,,,,,,,,0.020939,0.040634,0.002504,,,,,,
1736676453792,,,,,,,,,,,,,0.021276,0.084738,0.187992,,,,,,
1736676453802,,,,,,,,,,,,,0.037298,0.0969,0.170225,,,,,,
1736676453813,,,,,,,,,,,,,-0.060216,0.031676,-0.049915,,,,,,
1736676453823,,,,,,,,,,,,,-0.008904,0.062904,0.106299,,,,,,
1736676453832,,,,,,,,,,,,,-0.007527,-0.002062,-0.159449,,,,,,
1736676453843,,,,,,,,,,,,,-0.031063,-0.022699,-0.154194,,,,,,
1736676453854,,,,,,,,,,,,,-0.013233,0.08456,-0.169292,,,,,,
1736676453864,,,,,,,,,,,,,0.02822,0.015045,-0.153186,,,,,,
1736676453873,,,,,,,,,,,,,-0.019404,0.096752,-0.113367,,,,,,
1736676453883,,,,,,,,,,,,,0.00662,0.098149,-0.136978,,,,,,
1736676453893,,,,,,,,,,,,,-0.015434,-0.005697,-0.091164,,,,,,
1736676453903,,,,,,,,,,,,,-0.016394,0.036699,-0.106318,,,,,,
1736676453914,,,,,,,,,,,,,-0.004897,-0.048672,-0.072376,,,,,,
1736676453924,,,,,,,,,,,,,0.029638,-0.021136,-0.096154,,,,,,
1736676453933,,,,,,,,,,,,,0.028016,-0.018492,0.106383,,,,,,
1736676453943,,,,,,,,,,,,,0.020343,-0.012571,0.042001,,,,,,
1736676453953,,,,,,,,,,,,,0.091253,-0.035225,0.039135,,,,,,
1736676453963,,,,,,,,,,,,,0.068708,-0.043827,0.153773,,,,,,
1736676453973,,,,,,,,,,,,,-0.033208,-0.071596,-0.108358,,,,,,
1736676453983,,,,,,,,,,,,,-0.00633,-0.063712,-0.114996,,,,,,
1736676453993,,,,,,,,,,,,,-0.077835,-0.041937,-0.092703,,,,,,
1736676454003,,,,,,,,,,,,,-0.012433,-0.058663,-0.108699,,,,,,
1736676454013,,,,,,,,,,,,,-0.022763,-0.013482,-0.063114,,,,,,
1736676454023,,,,,,,,,,,,,-0.051095,-0.017328,-0.074593,,,,,,
1736676454033,,,,,,,,,,,,,0.084557,-0.125869,0.095632,,,,,,
1736676454043,,,,,,,,,,,,,-0.001767,-0.041342,-0.026164,,,,,,
1736676454053,,,,,,,,,,,,,-0.013002,-0.102174,0.032335,,,,,,
1736676454063,,,,,,,,,,,,,0.05939,-0.107855,0.071507,,,,,,
1736676454075,,,,,,,,,,,,,-0.061719,-0.094418,0.038097,,,,,,
1736676454085,,,,,,,,,,,,,-0.070067,-0.051365,0.053034,,,,,,
1736676454094,,,,,,,,,,,,,0.083222,-0.106867,0.028249,,,,,,
1736676454104,,,,,,,,,,,,,4.1E-4,-0.092078,0.026382,,,,,,
1736676454115,,,,,,,,,,,,,0.087835,-0.062608,-0.053842,,,,,,
1736676454125,,,,,,,,,,,,,0.110029,-0.086042,0.040109,,,,,,
1736676454134,,,,,,,,,,,,,-0.047339,-0.050557,-0.06838,,,,,,
1736676454144,,,,,,,,,,,,,0.007513,-0.039416,-0.124904,,,,,,
1736676454154,,,,,,,,,,,,,0.023493,-0.037118,0.063424,,,,,,
1736676454164,,,,,,,,,,,,,-0.014212,-0.036951,0.036972,,,,,,
1736676454175,,,,,,,,,,,,,0.104385,0.015477,0.111222,,,,,,
1736676454185,,,,,,,,,,,,,0.074783,0.015563,0.064148,,,,,,
1736676454194,,,,,,,,,,,,,0.020717,-0.012512,0.125414,,,,,,
1736676454204,,,,,,,,,,,,,0.075494,0.022476,0.111313,,,,,,
1736676454214,,,,,,,,,,,,,-0.034487,-0.012477,0.138949,,,,,,
1736676454224,,,,,,,,,,,,,0.002556,-0.017562,0.150941,,,,,,
1736676454234,,,,,,,,,,,,,0.039514,0.085992,0.241699,,,,,,
1736676454244,,,,,,,,,,,,,-0.019346,0.021426,0.157122,,,,,,
1736676454254,,,,,,,,,,,,,0.092933,0.186916,0.227267,,,,,,
1736676454264,,,,,,,,,,,,,0.089267,0.156549,0.27026,,,,,,
1736676454274,,,,,,,,,,,,,0.062253,0.143229,0.288378,,,,,,
1736676454284,,,,,,,,,,,,,0.079546,0.161782,0.270292,,,,,,
1736676454294,,,,,,,,,,,,,-0.065338,0.058386,0.305665,,,,,,
1736676454305,,,,,,,,,,,,,-0.022101,0.092626,0.299756,,,,,,
1736676454315,,,,,,,,,,,,,-0.037923,-0.053495,0.244699,,,,,,
1736676454325,,,,,,,,,,,,,-0.066674,0.005894,0.26792,,,,,,
1736676454336,,,,,,,,,,,,,0.01975,0.028251,0.342585,,,,,,
1736676454346,,,,,,,,,,,,,-5.62E-4,-0.013351,0.299781,,,,,,
1736676454355,,,,,,,,,,,,,0.041185,0.150423,0.189259,,,,,,
1736676454365,,,,,,,,,,,,,0.058054,0.099745,0.316252,,,,,,
1736676454376,,,,,,,,,,,,,0.017658,0.077445,0.184709,,,,,,
1736676454386,,,,,,,,,,,,,0.052373,0.108343,0.144721,,,,,,
1736676454396,,,,,,,,,,,,,-0.050772,0.047193,0.184955,,,,,,
1736676454406,,,,,,,,,,,,,0.01265,0.048828,0.247341,,,,,,
1736676454415,,,,,,,,,,,,,-0.068366,0.114272,0.156041,,,,,,
1736676454425,,,,,,,,,,,,,-0.072753,0.082783,0.002123,,,,,,
1736676454436,,,,,,,,,,,,,-0.047815,0.256857,0.214687,,,,,,
1736676454446,,,,,,,,,,,,,0.00747,0.146642,0.249921,,,,,,
1736676454455,,,,,,,,,,,,,-0.016288,0.238183,0.492382,,,,,,
1736676454465,,,,,,,,,,,,,-0.03132,0.262052,0.330431,,,,,,
1736676454475,,,,,,,,,,,,,-0.085629,0.192567,0.661757,,,,,,
1736676454485,,,,,,,,,,,,,-0.044794,0.22742,0.62541,,,,,,
1736676454496,,,,,,,,,,,,,0.054919,-0.010042,0.050153,,,,,,
1736676454506,,,,,,,,,,,,,0.063214,0.023731,0.427571,,,,,,
1736676454516,,,,,,,,,,,,,-0.074451,0.136977,0.108043,,,,,,
1736676454526,,,,,,,,,,,,,-0.058039,0.062047,0.018194,,,,,,
1736676454535,,,,,,,,,,,,,0.020163,0.198055,0.131691,,,,,,
1736676454546,,,,,,,,,,,,,-0.102474,0.140033,0.104807,,,,,,
1736676454556,,,,,,,,,,,,,0.104174,0.143761,0.271986,,,,,,
1736676454566,,,,,,,,,,,,,0.020214,0.186989,0.192996,,,,,,
1736676454577,,,,,,,,,,,,,0.074877,0.044309,0.27814,,,,,,
1736676454587,,,,,,,,,,,,,0.072158,0.119431,0.296147,,,,,,
1736676454597,,,,,,,,,,,,,-0.022045,0.0493,0.308307,,,,,,
1736676454607,,,,,,,,,,,,,0.035742,0.088597,0.222408,,,,,,
1736676454617,,,,,,,,,,,,,-0.076596,0.075112,0.523705,,,,,,
1736676454627,,,,,,,,,,,,,-0.010498,0.082884,0.45156,,,,,,
1736676454636,,,,,,,,,,,,,-0.084449,0.126834,0.517513,,,,,,
1736676454646,,,,,,,,,,,,,-0.080971,0.141953,0.537206,,,,,,
1736676454656,,,,,,,,,,,,,-0.009808,0.03779,0.467382,,,,,,
1736676454666,,,,,,,,,,,,,-0.039471,0.11352,0.482912,,,,,,
1736676454677,,,,,,,,,,,,,0.032802,0.047213,0.261627,,,,,,
1736676454686,,,,,,,,,,,,,-6.63E-4,0.028722,0.402743,,,,,,
1736676454696,,,,,,,,,,,,,0.04315,0.126823,0.092418,,,,,,
1736676454706,,,,,,,,,,,,,0.015412,0.07644,0.148366,,,,,,
1736676454717,,,,,,,,,,,,,0.090935,0.089378,0.154464,,,,,,
1736676454727,,,,,,,,,,,,,0.068116,0.104408,0.127146,,,,,,
1736676454736,,,,,,,,,,,,,0.033838,0.046676,0.231768,,,,,,
1736676454746,,,,,,,,,,,,,0.084918,0.062058,0.175571,,,,,,
1736676454756,,,,,,,,,,,,,-0.088259,0.155986,0.320745,,,,,,
1736676454766,,,,,,,,,,,,,-0.037908,0.111916,0.284336,,,,,,
1736676454777,,,,,,,,,,,,,0.02778,0.105051,0.395238,,,,,,
1736676454787,,,,,,,,,,,,,-0.068581,0.135814,0.346862,,,,,,
1736676454797,,,,,,,,,,,,,0.107791,0.108783,0.682387,,,,,,
1736676454807,,,,,,,,,,,,,0.051974,0.098454,0.567303,,,,,,
1736676454817,,,,,,,,,,,,,0.09712,0.201864,0.489225,,,,,,
1736676454827,,,,,,,,,,,,,0.077329,0.176783,0.582325,,,,,,
1736676454837,,,,,,,,,,,,,-0.022595,0.176091,0.470901,,,,,,
1736676454847,,,,,,,,,,,,,0.072419,0.2063,0.432011,,,,,,
1736676454857,,,,,,,,,,,,,-0.133274,0.168952,0.521137,,,,,,
1736676454867,,,,,,,,,,,,,-0.093575,0.172046,0.51761,,,,,,
1736676454878,,,,,,,,,,,,,0.023889,0.12865,0.502533,,,,,,
1736676454888,,,,,,,,,,,,,-0.088114,0.137212,0.523015,,,,,,
1736676454898,,,,,,,,,,,,,0.069994,0.129892,0.438495,,,,,,
1736676454908,,,,,,,,,,,,,0.046761,0.12027,0.486585,,,,,,
1736676454917,,,,,,,,,,,,,-0.019804,0.13332,0.39059,,,,,,
1736676454928,,,,,,,,,,,,,0.030822,0.129128,0.424679,,,,,,
1736676454937,,,,,,,,,,,,,-0.139835,0.113018,0.393402,,,,,,
1736676454947,,,,,,,,,,,,,-0.09113,0.139215,0.363762,,,,,,
1736676454957,,,,,,,,,,,,,-0.018542,0.08957,0.449657,,,,,,
1736676454967,,,,,,,,,,,,,-0.086753,0.11105,0.399523,,,,,,
1736676454977,,,,,,,,,,,,,0.134534,0.117949,0.489013,,,,,,
1736676454987,,,,,,,,,,,,,0.061398,0.097687,0.504118,,,,,,
1736676454997,,,,,,,,,,,,,0.087496,0.210108,0.537976,,,,,,
1736676455008,,,,,,,,,,,,,0.101328,0.182324,0.478777,,,,,,
1736676455018,,,,,,,,,,,,,0.04506,0.19959,0.56101,,,,,,
1736676455028,,,,,,,,,,,,,0.045203,0.237937,0.624164,,,,,,
1736676455039,,,,,,,,,,,,,0.072804,0.152847,0.426798,,,,,,
1736676455049,,,,,,,,,,,,,0.027188,0.184911,0.451495,,,,,,
1736676455059,,,,,,,,,,,,,0.072768,0.115688,0.529044,,,,,,
1736676455069,,,,,,,,,,,,,0.034265,0.128442,0.453435,,,,,,
1736676455078,,,,,,,,,,,,,0.05683,0.193429,0.630115,,,,,,
1736676455088,,,,,,,,,,,,,0.050662,0.153616,0.599171,,,,,,
1736676455098,,,,,,,,,,,,,0.082052,0.195828,0.546456,,,,,,
1736676455108,,,,,,,,,,,,,0.043298,0.203129,0.589046,,,,,,
1736676455118,,,,,,,,,,,,,-0.011496,0.142936,0.416042,,,,,,
1736676455128,,,,,,,,,,,,,0.042574,0.146139,0.477119,,,,,,
1736676455138,,,,,,,,,,,,,-0.062078,0.164954,0.525252,,,,,,
1736676455148,,,,,,,,,,,,,-0.065934,0.150211,0.445566,,,,,,
1736676455158,,,,,,,,,,,,,0.058412,0.251413,0.562005,,,,,,
1736676455168,,,,,,,,,,,,,-0.01124,0.209561,0.558007,,,,,,
1736676455179,,,,,,,,,,,,,0.090491,0.207542,0.586747,,,,,,
1736676455189,,,,,,,,,,,,,0.055101,0.250036,0.582479,,,,,,
1736676455199,,,,,,,,,,,,,0.024176,0.158507,0.514915,,,,,,
1736676455209,,,,,,,,,,,,,0.078817,0.164745,0.53208,,,,,,
1736676455218,,,,,,,,,,,,,-0.038255,0.242894,0.585387,,,,,,
1736676455228,,,,,,,,,,,,,-0.019921,0.192371,0.536838,,,,,,
1736676455238,,,,,,,,,,,,,0.051582,0.219378,0.571203,,,,,,
1736676455249,,,,,,,,,,,,,-0.040275,0.240997,0.622747,,,,,,
1736676455260,,,,,,,,,,,,,0.074732,0.104423,0.508715,,,,,,
1736676455270,,,,,,,,,,,,,0.049308,0.15066,0.519278,,,,,,
1736676455279,,,,,,,,,,,,,0.013253,0.120051,0.549683,,,,,,
1736676455289,,,,,,,,,,,,,0.059077,0.102816,0.535659,,,,,,
1736676455299,,,,,,,,,,,,,-0.002837,0.261528,0.636405,,,,,,
1736676455309,,,,,,,,,,,,,-0.032241,0.192226,0.584586,,,,,,
1736676455319,,,,,,,,,,,,,0.065668,0.302761,0.551055,,,,,,
1736676455329,,,,,,,,,,,,,0.02379,0.264107,0.600194,,,,,,
1736676455339,,,,,,,,,,,,,0.018757,0.215572,0.586166,,,,,,
1736676455349,,,,,,,,,,,,,0.056605,0.267313,0.585738,,,,,,
1736676455359,,,,,,,,,,,,,-0.041907,0.149708,0.593935,,,,,,
1736676455369,,,,,,,,,,,,,-0.054009,0.163771,0.605898,,,,,,
1736676455379,,,,,,,,,,,,,-0.036482,0.118566,0.533831,,,,,,
1736676455389,,,,,,,,,,,,,-0.00911,0.136637,0.563604,,,,,,
1736676455399,,,,,,,,,,,,,-0.019185,0.129848,0.590474,,,,,,
1736676455409,,,,,,,,,,,,,-0.011802,0.130459,0.525395,,,,,,
1736676455420,,,,,,,,,,,,,-0.035789,0.168455,0.587527,,,,,,
1736676455430,,,,,,,,,,,,,-0.0051,0.176176,0.597403,,,,,,
1736676452448,,,,,,,,,,,,,,,,0.106464,-0.200603,-0.936126,,,
1736676452458,,,,,,,,,,,,,,,,0.107652,-0.198915,-0.935236,,,
1736676452468,,,,,,,,,,,,,,,,0.106607,-0.197554,-0.934491,,,
1736676452478,,,,,,,,,,,,,,,,0.106418,-0.19672,-0.933745,,,
1736676452487,,,,,,,,,,,,,,,,0.10365,-0.195808,-0.933332,,,
1736676452497,,,,,,,,,,,,,,,,0.10171,-0.195207,-0.932835,,,
1736676452508,,,,,,,,,,,,,,,,0.098116,-0.19463,-0.932596,,,
1736676452518,,,,,,,,,,,,,,,,0.095768,-0.194149,-0.932241,,,
1736676452527,,,,,,,,,,,,,,,,0.093965,-0.194503,-0.931896,,,
1736676452537,,,,,,,,,,,,,,,,0.091774,-0.194663,-0.931492,,,
1736676452547,,,,,,,,,,,,,,,,0.090511,-0.196526,-0.930989,,,
1736676452557,,,,,,,,,,,,,,,,0.088779,-0.197927,-0.930411,,,
1736676452567,,,,,,,,,,,,,,,,0.086742,-0.19971,-0.929978,,,
1736676452577,,,,,,,,,,,,,,,,0.084884,-0.201228,-0.929496,,,
1736676452587,,,,,,,,,,,,,,,,0.081855,-0.203001,-0.929097,,,
1736676452597,,,,,,,,,,,,,,,,0.079271,-0.204092,-0.928704,,,
1736676452607,,,,,,,,,,,,,,,,0.076096,-0.204836,-0.928495,,,
1736676452617,,,,,,,,,,,,,,,,0.073856,-0.205524,-0.928123,,,
1736676452627,,,,,,,,,,,,,,,,0.070241,-0.204442,-0.928115,,,
1736676452637,,,,,,,,,,,,,,,,0.067197,-0.203599,-0.928055,,,
1736676452647,,,,,,,,,,,,,,,,0.063472,-0.202079,-0.928125,,,
1736676452657,,,,,,,,,,,,,,,,0.060277,-0.200787,-0.928086,,,
1736676452668,,,,,,,,,,,,,,,,0.057117,-0.199935,-0.928018,,,
1736676452678,,,,,,,,,,,,,,,,0.054161,-0.199015,-0.927862,,,
1736676452689,,,,,,,,,,,,,,,,0.050208,-0.198847,-0.927597,,,
1736676452699,,,,,,,,,,,,,,,,0.047224,-0.198775,-0.927285,,,
1736676452709,,,,,,,,,,,,,,,,0.043334,-0.198767,-0.927056,,,
1736676452719,,,,,,,,,,,,,,,,0.039861,-0.199077,-0.926691,,,
1736676452728,,,,,,,,,,,,,,,,0.035602,-0.199099,-0.926591,,,
1736676452738,,,,,,,,,,,,,,,,0.031593,-0.199582,-0.926299,,,
1736676452748,,,,,,,,,,,,,,,,0.025331,-0.199616,-0.926103,,,
1736676452758,,,,,,,,,,,,,,,,0.020337,-0.200148,-0.925728,,,
1736676452769,,,,,,,,,,,,,,,,0.011712,-0.201231,-0.925204,,,
1736676452779,,,,,,,,,,,,,,,,0.005098,-0.201571,-0.92462,,,
1736676452788,,,,,,,,,,,,,,,,-0.001487,-0.202408,-0.923924,,,
1736676452798,,,,,,,,,,,,,,,,-0.006084,-0.202753,-0.923117,,,
1736676452808,,,,,,,,,,,,,,,,-0.008012,-0.20198,-0.922626,,,
1736676452818,,,,,,,,,,,,,,,,-0.009407,-0.201239,-0.921842,,,
1736676452828,,,,,,,,,,,,,,,,-0.009296,-0.200119,-0.92141,,,
1736676452838,,,,,,,,,,,,,,,,-0.009459,-0.198938,-0.920788,,,
1736676452848,,,,,,,,,,,,,,,,-0.009983,-0.198601,-0.920109,,,
1736676452858,,,,,,,,,,,,,,,,-0.010443,-0.198125,-0.919475,,,
1736676452868,,,,,,,,,,,,,,,,-0.011885,-0.198692,-0.918703,,,
1736676452878,,,,,,,,,,,,,,,,-0.012688,-0.19895,-0.917976,,,
1736676452889,,,,,,,,,,,,,,,,-0.013257,-0.198924,-0.917318,,,
1736676452900,,,,,,,,,,,,,,,,-0.013336,-0.199193,-0.916563,,,
1736676452910,,,,,,,,,,,,,,,,-0.012616,-0.198207,-0.916042,,,
1736676452920,,,,,,,,,,,,,,,,-0.012077,-0.19758,-0.915428,,,
1736676452929,,,,,,,,,,,,,,,,-0.011452,-0.197207,-0.914893,,,
1736676452939,,,,,,,,,,,,,,,,-0.011149,-0.196659,-0.914353,,,
1736676452949,,,,,,,,,,,,,,,,-0.011334,-0.197007,-0.913807,,,
1736676452959,,,,,,,,,,,,,,,,-0.011307,-0.197107,-0.913302,,,
1736676452970,,,,,,,,,,,,,,,,-0.011699,-0.197318,-0.912834,,,
1736676452980,,,,,,,,,,,,,,,,-0.011914,-0.197655,-0.912286,,,
1736676452989,,,,,,,,,,,,,,,,-0.011623,-0.197399,-0.911986,,,
1736676452999,,,,,,,,,,,,,,,,-0.01143,-0.197227,-0.911585,,,
1736676453009,,,,,,,,,,,,,,,,-0.011298,-0.197555,-0.911108,,,
1736676453019,,,,,,,,,,,,,,,,-0.011197,-0.197532,-0.91061,,,
1736676453029,,,,,,,,,,,,,,,,-0.011188,-0.197441,-0.91008,,,
1736676453039,,,,,,,,,,,,,,,,-0.010768,-0.19743,-0.909491,,,
1736676453049,,,,,,,,,,,,,,,,-0.010365,-0.196915,-0.908984,,,
1736676453059,,,,,,,,,,,,,,,,-0.009952,-0.196571,-0.908539,,,
1736676453070,,,,,,,,,,,,,,,,-0.009577,-0.195891,-0.908158,,,
1736676453079,,,,,,,,,,,,,,,,-0.009243,-0.195294,-0.907909,,,
1736676453090,,,,,,,,,,,,,,,,-0.008942,-0.194935,-0.907716,,,
1736676453100,,,,,,,,,,,,,,,,-0.008857,-0.194449,-0.907543,,,
1736676453110,,,,,,,,,,,,,,,,-0.00815,-0.194095,-0.907441,,,
1736676453120,,,,,,,,,,,,,,,,-0.007823,-0.193708,-0.907292,,,
1736676453130,,,,,,,,,,,,,,,,-0.007096,-0.192256,-0.907282,,,
1736676453140,,,,,,,,,,,,,,,,-0.006021,-0.19139,-0.907176,,,
1736676453150,,,,,,,,,,,,,,,,-0.005851,-0.189801,-0.907067,,,
1736676453160,,,,,,,,,,,,,,,,-0.005353,-0.188535,-0.906969,,,
1736676453170,,,,,,,,,,,,,,,,-0.005111,-0.187566,-0.906798,,,
1736676453180,,,,,,,,,,,,,,,,-0.005031,-0.18646,-0.906652,,,
1736676453190,,,,,,,,,,,,,,,,-0.004483,-0.185872,-0.906375,,,
1736676453200,,,,,,,,,,,,,,,,-0.003831,-0.18518,-0.906111,,,
1736676453210,,,,,,,,,,,,,,,,-0.003869,-0.184426,-0.905727,,,
1736676453220,,,,,,,,,,,,,,,,-0.003258,-0.18386,-0.905368,,,
1736676453231,,,,,,,,,,,,,,,,-0.003853,-0.183128,-0.905013,,,
1736676453241,,,,,,,,,,,,,,,,-0.004404,-0.182514,-0.904711,,,
1736676453250,,,,,,,,,,,,,,,,-0.004615,-0.181985,-0.904538,,,
1736676453260,,,,,,,,,,,,,,,,-0.005082,-0.181625,-0.904359,,,
1736676453270,,,,,,,,,,,,,,,,-0.0042,-0.180669,-0.90444,,,
1736676453280,,,,,,,,,,,,,,,,-0.003719,-0.180137,-0.904399,,,
1736676453290,,,,,,,,,,,,,,,,-0.002953,-0.179371,-0.90443,,,
1736676453300,,,,,,,,,,,,,,,,-0.002304,-0.17847,-0.904412,,,
1736676453310,,,,,,,,,,,,,,,,-0.001878,-0.177801,-0.904319,,,
1736676453320,,,,,,,,,,,,,,,,-9.91E-4,-0.176989,-0.904193,,,
1736676453331,,,,,,,,,,,,,,,,4.42E-4,-0.176264,-0.90411,,,
1736676453341,,,,,,,,,,,,,,,,0.001421,-0.175524,-0.903991,,,
1736676453351,,,,,,,,,,,,,,,,0.003794,-0.175107,-0.903872,,,
1736676453361,,,,,,,,,,,,,,,,0.00567,-0.174804,-0.903672,,,
1736676453371,,,,,,,,,,,,,,,,0.007656,-0.174506,-0.903482,,,
1736676453381,,,,,,,,,,,,,,,,0.009632,-0.174327,-0.903206,,,
1736676453391,,,,,,,,,,,,,,,,0.010931,-0.174139,-0.902961,,,
1736676453401,,,,,,,,,,,,,,,,0.012315,-0.17384,-0.902742,,,
1736676453411,,,,,,,,,,,,,,,,0.013597,-0.17349,-0.902536,,,
1736676453421,,,,,,,,,,,,,,,,0.014748,-0.173044,-0.902347,,,
1736676453431,,,,,,,,,,,,,,,,0.016369,-0.17282,-0.902178,,,
1736676453441,,,,,,,,,,,,,,,,0.017627,-0.172446,-0.902011,,,
1736676453451,,,,,,,,,,,,,,,,0.019332,-0.172337,-0.901771,,,
1736676453461,,,,,,,,,,,,,,,,0.020709,-0.172095,-0.90154,,,
1736676453471,,,,,,,,,,,,,,,,0.022574,-0.171634,-0.901352,,,
1736676453481,,,,,,,,,,,,,,,,0.024062,-0.171433,-0.901146,,,
1736676453491,,,,,,,,,,,,,,,,0.025058,-0.171241,-0.900959,,,
1736676453501,,,,,,,,,,,,,,,,0.026186,-0.171092,-0.900797,,,
1736676453511,,,,,,,,,,,,,,,,0.027081,-0.170911,-0.900777,,,
1736676453521,,,,,,,,,,,,,,,,0.027596,-0.170831,-0.900736,,,
1736676453531,,,,,,,,,,,,,,,,0.028594,-0.170754,-0.900853,,,
1736676453541,,,,,,,,,,,,,,,,0.029369,-0.170759,-0.900895,,,
1736676453551,,,,,,,,,,,,,,,,0.030382,-0.170622,-0.900969,,,
1736676453561,,,,,,,,,,,,,,,,0.031396,-0.170424,-0.90097,,,
1736676453571,,,,,,,,,,,,,,,,0.032762,-0.170156,-0.901045,,,
1736676453581,,,,,,,,,,,,,,,,0.033929,-0.169766,-0.900962,,,
1736676453592,,,,,,,,,,,,,,,,0.035266,-0.169113,-0.900939,,,
1736676453603,,,,,,,,,,,,,,,,0.036636,-0.168513,-0.900909,,,
1736676453612,,,,,,,,,,,,,,,,0.037843,-0.167761,-0.900816,,,
1736676453622,,,,,,,,,,,,,,,,0.039266,-0.167168,-0.900706,,,
1736676453632,,,,,,,,,,,,,,,,0.040937,-0.166466,-0.900586,,,
1736676453642,,,,,,,,,,,,,,,,0.042054,-0.16586,-0.900469,,,
1736676453653,,,,,,,,,,,,,,,,0.044244,-0.165776,-0.900286,,,
1736676453663,,,,,,,,,,,,,,,,0.045746,-0.16547,-0.900199,,,
1736676453673,,,,,,,,,,,,,,,,0.047727,-0.165735,-0.900024,,,
1736676453682,,,,,,,,,,,,,,,,0.049288,-0.165948,-0.899826,,,
1736676453692,,,,,,,,,,,,,,,,0.050643,-0.166247,-0.89966,,,
1736676453702,,,,,,,,,,,,,,,,0.051892,-0.166526,-0.899413,,,
1736676453712,,,,,,,,,,,,,,,,0.052911,-0.166261,-0.899214,,,
1736676453722,,,,,,,,,,,,,,,,0.054087,-0.166034,-0.898988,,,
1736676453732,,,,,,,,,,,,,,,,0.055204,-0.16527,-0.898909,,,
1736676453742,,,,,,,,,,,,,,,,0.05617,-0.1646,-0.898803,,,
1736676453752,,,,,,,,,,,,,,,,0.056947,-0.163872,-0.898793,,,
1736676453762,,,,,,,,,,,,,,,,0.05732,-0.163248,-0.898762,,,
1736676453772,,,,,,,,,,,,,,,,0.057749,-0.163115,-0.89875,,,
1736676453782,,,,,,,,,,,,,,,,0.058184,-0.163019,-0.898723,,,
1736676453792,,,,,,,,,,,,,,,,0.058686,-0.162929,-0.898709,,,
1736676453802,,,,,,,,,,,,,,,,0.059239,-0.163016,-0.898693,,,
1736676453813,,,,,,,,,,,,,,,,0.060201,-0.163126,-0.898711,,,
1736676453823,,,,,,,,,,,,,,,,0.060933,-0.163257,-0.898697,,,
1736676453832,,,,,,,,,,,,,,,,0.061681,-0.1635,-0.898631,,,
1736676453843,,,,,,,,,,,,,,,,0.062436,-0.163594,-0.898606,,,
1736676453854,,,,,,,,,,,,,,,,0.063231,-0.164022,-0.898467,,,
1736676453863,,,,,,,,,,,,,,,,0.063639,-0.164196,-0.898369,,,
1736676453873,,,,,,,,,,,,,,,,0.064345,-0.164417,-0.898285,,,
1736676453883,,,,,,,,,,,,,,,,0.065052,-0.164591,-0.898151,,,
1736676453894,,,,,,,,,,,,,,,,0.065696,-0.164259,-0.898128,,,
1736676453904,,,,,,,,,,,,,,,,0.066414,-0.164054,-0.898096,,,
1736676453914,,,,,,,,,,,,,,,,0.066807,-0.163573,-0.898144,,,
1736676453924,,,,,,,,,,,,,,,,0.067017,-0.163292,-0.898147,,,
1736676453933,,,,,,,,,,,,,,,,0.067025,-0.162869,-0.898284,,,
1736676453943,,,,,,,,,,,,,,,,0.06706,-0.162656,-0.898387,,,
1736676453954,,,,,,,,,,,,,,,,0.066788,-0.162618,-0.89856,,,
1736676453964,,,,,,,,,,,,,,,,0.066493,-0.162519,-0.898732,,,
1736676453973,,,,,,,,,,,,,,,,0.066706,-0.162562,-0.898865,,,
1736676453983,,,,,,,,,,,,,,,,0.066881,-0.162659,-0.898936,,,
1736676453993,,,,,,,,,,,,,,,,0.067339,-0.1627,-0.899022,,,
1736676454003,,,,,,,,,,,,,,,,0.067476,-0.162756,-0.899071,,,
1736676454013,,,,,,,,,,,,,,,,0.067654,-0.162846,-0.89917,,,
1736676454023,,,,,,,,,,,,,,,,0.067924,-0.162842,-0.899261,,,
1736676454033,,,,,,,,,,,,,,,,0.067426,-0.162417,-0.899366,,,
1736676454043,,,,,,,,,,,,,,,,0.067452,-0.162249,-0.899515,,,
1736676454053,,,,,,,,,,,,,,,,0.067266,-0.161824,-0.899728,,,
1736676454063,,,,,,,,,,,,,,,,0.066686,-0.161392,-0.899976,,,
1736676454074,,,,,,,,,,,,,,,,0.066556,-0.16087,-0.900207,,,
1736676454084,,,,,,,,,,,,,,,,0.066504,-0.160438,-0.90042,,,
1736676454095,,,,,,,,,,,,,,,,0.065826,-0.160007,-0.90048,,,
1736676454105,,,,,,,,,,,,,,,,0.065606,-0.159497,-0.900575,,,
1736676454115,,,,,,,,,,,,,,,,0.06531,-0.159243,-0.900574,,,
1736676454125,,,,,,,,,,,,,,,,0.064959,-0.15883,-0.900557,,,
1736676454134,,,,,,,,,,,,,,,,0.065412,-0.158426,-0.900615,,,
1736676454144,,,,,,,,,,,,,,,,0.065706,-0.15817,-0.900638,,,
1736676454154,,,,,,,,,,,,,,,,0.065671,-0.157767,-0.900763,,,
1736676454164,,,,,,,,,,,,,,,,0.065552,-0.157432,-0.900906,,,
1736676454175,,,,,,,,,,,,,,,,0.064914,-0.157379,-0.901155,,,
1736676454185,,,,,,,,,,,,,,,,0.064432,-0.157331,-0.901361,,,
1736676454194,,,,,,,,,,,,,,,,0.064164,-0.157064,-0.901623,,,
1736676454204,,,,,,,,,,,,,,,,0.063838,-0.156981,-0.901838,,,
1736676454214,,,,,,,,,,,,,,,,0.063855,-0.15662,-0.902006,,,
1736676454224,,,,,,,,,,,,,,,,0.063666,-0.156283,-0.902166,,,
1736676454234,,,,,,,,,,,,,,,,0.063385,-0.156224,-0.902266,,,
1736676454244,,,,,,,,,,,,,,,,0.063168,-0.156028,-0.902387,,,
1736676454254,,,,,,,,,,,,,,,,0.06272,-0.156412,-0.902373,,,
1736676454264,,,,,,,,,,,,,,,,0.062277,-0.156691,-0.902398,,,
1736676454274,,,,,,,,,,,,,,,,0.062029,-0.156858,-0.902427,,,
1736676454284,,,,,,,,,,,,,,,,0.061831,-0.157139,-0.902459,,,
1736676454294,,,,,,,,,,,,,,,,0.061946,-0.156933,-0.902584,,,
1736676454305,,,,,,,,,,,,,,,,0.061917,-0.15692,-0.902698,,,
1736676454315,,,,,,,,,,,,,,,,0.061716,-0.156525,-0.902787,,,
1736676454325,,,,,,,,,,,,,,,,0.061738,-0.156263,-0.902905,,,
1736676454336,,,,,,,,,,,,,,,,0.061463,-0.156072,-0.902971,,,
1736676454346,,,,,,,,,,,,,,,,0.061257,-0.155714,-0.902992,,,
1736676454355,,,,,,,,,,,,,,,,0.061417,-0.155984,-0.902902,,,
1736676454365,,,,,,,,,,,,,,,,0.061626,-0.155902,-0.902833,,,
1736676454376,,,,,,,,,,,,,,,,0.062327,-0.155727,-0.902622,,,
1736676454386,,,,,,,,,,,,,,,,0.063212,-0.155639,-0.902458,,,
1736676454396,,,,,,,,,,,,,,,,0.064411,-0.155182,-0.902355,,,
1736676454406,,,,,,,,,,,,,,,,0.065218,-0.154808,-0.902272,,,
1736676454415,,,,,,,,,,,,,,,,0.066357,-0.154697,-0.902247,,,
1736676454425,,,,,,,,,,,,,,,,0.06744,-0.154622,-0.902206,,,
1736676454436,,,,,,,,,,,,,,,,0.068365,-0.154926,-0.90209,,,
1736676454446,,,,,,,,,,,,,,,,0.068708,-0.154938,-0.901999,,,
1736676454455,,,,,,,,,,,,,,,,0.069119,-0.154893,-0.901979,,,
1736676454465,,,,,,,,,,,,,,,,0.06971,-0.155091,-0.901876,,,
1736676454475,,,,,,,,,,,,,,,,0.070074,-0.154785,-0.901938,,,
1736676454485,,,,,,,,,,,,,,,,0.070182,-0.154889,-0.902003,,,
1736676454496,,,,,,,,,,,,,,,,0.069679,-0.155245,-0.902123,,,
1736676454506,,,,,,,,,,,,,,,,0.069026,-0.155438,-0.902299,,,
1736676454516,,,,,,,,,,,,,,,,0.069382,-0.15608,-0.902543,,,
1736676454526,,,,,,,,,,,,,,,,0.069361,-0.156521,-0.902777,,,
1736676454535,,,,,,,,,,,,,,,,0.068717,-0.157343,-0.903019,,,
1736676454546,,,,,,,,,,,,,,,,0.067982,-0.157796,-0.903313,,,
1736676454556,,,,,,,,,,,,,,,,0.066237,-0.1582,-0.903659,,,
1736676454566,,,,,,,,,,,,,,,,0.065073,-0.158558,-0.904,,,
1736676454577,,,,,,,,,,,,,,,,0.063712,-0.158227,-0.904445,,,
1736676454587,,,,,,,,,,,,,,,,0.062779,-0.157896,-0.9049,,,
1736676454597,,,,,,,,,,,,,,,,0.062337,-0.157018,-0.905387,,,
1736676454607,,,,,,,,,,,,,,,,0.062049,-0.156258,-0.905777,,,
1736676454617,,,,,,,,,,,,,,,,0.062108,-0.154937,-0.906112,,,
1736676454627,,,,,,,,,,,,,,,,0.061991,-0.153862,-0.906433,,,
1736676454636,,,,,,,,,,,,,,,,0.062098,-0.152928,-0.906526,,,
1736676454646,,,,,,,,,,,,,,,,0.062152,-0.152233,-0.906664,,,
1736676454656,,,,,,,,,,,,,,,,0.061814,-0.151556,-0.906602,,,
1736676454666,,,,,,,,,,,,,,,,0.061697,-0.151266,-0.906642,,,
1736676454676,,,,,,,,,,,,,,,,0.061206,-0.151271,-0.906546,,,
1736676454686,,,,,,,,,,,,,,,,0.06059,-0.151221,-0.906503,,,
1736676454696,,,,,,,,,,,,,,,,0.06007,-0.151933,-0.906353,,,
1736676454706,,,,,,,,,,,,,,,,0.059617,-0.15233,-0.906168,,,
1736676454717,,,,,,,,,,,,,,,,0.059155,-0.152713,-0.906084,,,
1736676454727,,,,,,,,,,,,,,,,0.059113,-0.152997,-0.905918,,,
1736676454736,,,,,,,,,,,,,,,,0.059194,-0.152846,-0.905845,,,
1736676454746,,,,,,,,,,,,,,,,0.059044,-0.152815,-0.905784,,,
1736676454756,,,,,,,,,,,,,,,,0.059353,-0.152731,-0.905815,,,
1736676454766,,,,,,,,,,,,,,,,0.059177,-0.152594,-0.905846,,,
1736676454777,,,,,,,,,,,,,,,,0.058563,-0.152373,-0.905962,,,
1736676454787,,,,,,,,,,,,,,,,0.058303,-0.152172,-0.906114,,,
1736676454797,,,,,,,,,,,,,,,,0.057135,-0.151726,-0.906295,,,
1736676454807,,,,,,,,,,,,,,,,0.056187,-0.151331,-0.906515,,,
1736676454817,,,,,,,,,,,,,,,,0.055473,-0.151396,-0.906688,,,
1736676454827,,,,,,,,,,,,,,,,0.055051,-0.151238,-0.90683,,,
1736676454837,,,,,,,,,,,,,,,,0.055273,-0.151049,-0.906884,,,
1736676454847,,,,,,,,,,,,,,,,0.055245,-0.151088,-0.906976,,,
1736676454857,,,,,,,,,,,,,,,,0.055695,-0.150755,-0.906932,,,
1736676454867,,,,,,,,,,,,,,,,0.055852,-0.150554,-0.906906,,,
1736676454878,,,,,,,,,,,,,,,,0.055409,-0.150455,-0.90673,,,
1736676454888,,,,,,,,,,,,,,,,0.055305,-0.15034,-0.906628,,,
1736676454898,,,,,,,,,,,,,,,,0.054685,-0.150517,-0.906417,,,
1736676454908,,,,,,,,,,,,,,,,0.05421,-0.150607,-0.906255,,,
1736676454918,,,,,,,,,,,,,,,,0.05418,-0.150743,-0.906135,,,
1736676454928,,,,,,,,,,,,,,,,0.054019,-0.150831,-0.905983,,,
1736676454937,,,,,,,,,,,,,,,,0.054475,-0.15063,-0.906042,,,
1736676454947,,,,,,,,,,,,,,,,0.054779,-0.150538,-0.906019,,,
1736676454957,,,,,,,,,,,,,,,,0.054646,-0.150243,-0.906067,,,
1736676454967,,,,,,,,,,,,,,,,0.054778,-0.149967,-0.906085,,,
1736676454977,,,,,,,,,,,,,,,,0.05404,-0.149878,-0.906042,,,
1736676454987,,,,,,,,,,,,,,,,0.053471,-0.149659,-0.906037,,,
1736676454997,,,,,,,,,,,,,,,,0.052994,-0.149837,-0.905929,,,
1736676455008,,,,,,,,,,,,,,,,0.052541,-0.150026,-0.905855,,,
1736676455018,,,,,,,,,,,,,,,,0.052323,-0.150174,-0.905696,,,
1736676455028,,,,,,,,,,,,,,,,0.052109,-0.150454,-0.905581,,,
1736676455039,,,,,,,,,,,,,,,,0.051664,-0.150732,-0.90543,,,
1736676455049,,,,,,,,,,,,,,,,0.051357,-0.151034,-0.905325,,,
1736676455059,,,,,,,,,,,,,,,,0.050648,-0.151066,-0.905283,,,
1736676455069,,,,,,,,,,,,,,,,0.050042,-0.151168,-0.905233,,,
1736676455078,,,,,,,,,,,,,,,,0.04931,-0.151353,-0.905196,,,
1736676455088,,,,,,,,,,,,,,,,0.048524,-0.15152,-0.905158,,,
1736676455098,,,,,,,,,,,,,,,,0.047822,-0.151959,-0.905072,,,
1736676455108,,,,,,,,,,,,,,,,0.047498,-0.152334,-0.904978,,,
1736676455118,,,,,,,,,,,,,,,,0.047582,-0.152595,-0.904832,,,
1736676455128,,,,,,,,,,,,,,,,0.047528,-0.152781,-0.904705,,,
1736676455138,,,,,,,,,,,,,,,,0.047753,-0.152785,-0.904588,,,
1736676455148,,,,,,,,,,,,,,,,0.047777,-0.152756,-0.904503,,,
1736676455158,,,,,,,,,,,,,,,,0.047277,-0.153046,-0.904397,,,
1736676455168,,,,,,,,,,,,,,,,0.046952,-0.153114,-0.904323,,,
1736676455179,,,,,,,,,,,,,,,,0.046423,-0.153252,-0.904177,,,
1736676455189,,,,,,,,,,,,,,,,0.046265,-0.153527,-0.904021,,,
1736676455199,,,,,,,,,,,,,,,,0.046187,-0.153589,-0.903867,,,
1736676455209,,,,,,,,,,,,,,,,0.045908,-0.153761,-0.903716,,,
1736676455218,,,,,,,,,,,,,,,,0.046047,-0.154021,-0.903593,,,
1736676455228,,,,,,,,,,,,,,,,0.045875,-0.154254,-0.903503,,,
1736676455238,,,,,,,,,,,,,,,,0.045345,-0.154634,-0.90341,,,
1736676455249,,,,,,,,,,,,,,,,0.045155,-0.154899,-0.903302,,,
1736676455260,,,,,,,,,,,,,,,,0.0445,-0.154912,-0.90326,,,
1736676455270,,,,,,,,,,,,,,,,0.04416,-0.154932,-0.903233,,,
1736676455279,,,,,,,,,,,,,,,,0.043946,-0.15473,-0.903232,,,
1736676455289,,,,,,,,,,,,,,,,0.043518,-0.154498,-0.903232,,,
1736676455299,,,,,,,,,,,,,,,,0.043494,-0.15459,-0.90325,,,
1736676455309,,,,,,,,,,,,,,,,0.043413,-0.154566,-0.903242,,,
1736676455319,,,,,,,,,,,,,,,,0.04314,-0.15511,-0.903098,,,
1736676455329,,,,,,,,,,,,,,,,0.042952,-0.155525,-0.903022,,,
1736676455339,,,,,,,,,,,,,,,,0.042844,-0.155841,-0.902933,,,
1736676455349,,,,,,,,,,,,,,,,0.042801,-0.156375,-0.902819,,,
1736676455359,,,,,,,,,,,,,,,,0.042928,-0.156436,-0.902798,,,
1736676455369,,,,,,,,,,,,,,,,0.043075,-0.156485,-0.902794,,,
1736676455379,,,,,,,,,,,,,,,,0.043068,-0.156414,-0.902836,,,
1736676455389,,,,,,,,,,,,,,,,0.043038,-0.156272,-0.902887,,,
1736676455399,,,,,,,,,,,,,,,,0.043121,-0.155893,-0.902951,,,
1736676455409,,,,,,,,,,,,,,,,0.043289,-0.155468,-0.903005,,,
1736676455420,,,,,,,,,,,,,,,,0.043605,-0.155011,-0.903037,,,
1736676455430,,,,,,,,,,,,,,,,0.043831,-0.154611,-0.903029,,,
1736676452466,,,,,,,,,,,,,,,,,,,371.0,,
1736676452666,,,,,,,,,,,,,,,,,,,297.0,,
1736676452866,,,,,,,,,,,,,,,,,,,215.0,,
1736676453066,,,,,,,,,,,,,,,,,,,147.0,,
1736676453266,,,,,,,,,,,,,,,,,,,136.0,,
1736676453465,,,,,,,,,,,,,,,,,,,138.0,,
1736676453666,,,,,,,,,,,,,,,,,,,147.0,,
1736676453866,,,,,,,,,,,,,,,,,,,160.0,,
1736676454067,,,,,,,,,,,,,,,,,,,169.0,,
1736676454267,,,,,,,,,,,,,,,,,,,172.0,,
1736676454466,,,,,,,,,,,,,,,,,,,174.0,,
1736676454666,,,,,,,,,,,,,,,,,,,177.0,,
1736676454866,,,,,,,,,,,,,,,,,,,181.0,,
1736676455067,,,,,,,,,,,,,,,,,,,182.0,,
1736676455267,,,,,,,,,,,,,,,,,,,180.0,,
1736676455439,0.393,3.1420503,9.94305,,,,,,,,,,,,,,,,,,
1736676455449,0.372,3.1210501,9.957001,,,,,,,,,,,,,,,,,,
1736676455459,0.34995002,3.1350002,10.017,,,,,,,,,,,,,,,,,,
1736676455469,0.381,3.15,10.05,,,,,,,,,,,,,,,,,,
1736676455480,0.393,3.15405,9.98295,,,,,,,,,,,,,,,,,,
1736676455490,0.36195,3.1639502,9.883051,,,,,,,,,,,,,,,,,,
1736676455501,0.381,3.13995,9.832951,,,,,,,,,,,,,,,,,,
1736676455511,0.39105,3.14505,9.8230505,,,,,,,,,,,,,,,,,,
1736676455521,0.34995002,3.1380002,9.828,,,,,,,,,,,,,,,,,,
1736676455531,0.31395,3.15,9.847051,,,,,,,,,,,,,,,,,,
1736676455540,0.312,3.1300502,9.883051,,,,,,,,,,,,,,,,,,
1736676455550,0.36195,3.1519501,9.873,,,,,,,,,,,,,,,,,,
1736676455560,0.393,3.1660502,9.864,,,,,,,,,,,,,,,,,,
1736676455570,0.40800002,3.1690502,9.880051,,,,,,,,,,,,,,,,,,
1736676455580,0.393,3.1620002,9.912001,,,,,,,,,,,,,,,,,,
1736676455590,0.39795002,3.15,9.99495,,,,,,,,,,,,,,,,,,
1736676455600,0.40800002,3.0970502,10.029,,,,,,,,,,,,,,,,,,
1736676455611,0.38595003,3.0630002,9.993,,,,,,,,,,,,,,,,,,
1736676455620,0.384,3.0610502,9.95895,,,,,,,,,,,,,,,,,,
1736676455630,0.35295,3.1300502,9.92595,,,,,,,,,,,,,,,,,,
1736676455640,0.321,3.1660502,9.94305,,,,,,,,,,,,,,,,,,
1736676455650,0.33600003,3.1620002,9.95505,,,,,,,,,,,,,,,,,,
1736676455660,0.34305,3.14505,9.94995,,,,,,,,,,,,,,,,,,
1736676455670,0.384,3.1210501,9.96195,,,,,,,,,,,,,,,,,,
1736676455680,0.39600003,3.11805,9.91905,,,,,,,,,,,,,,,,,,
1736676455690,0.37905002,3.11595,9.9210005,,,,,,,,,,,,,,,,,,
1736676455700,0.36705002,3.1380002,9.997951,,,,,,,,,,,,,,,,,,
1736676455711,0.39105,3.15405,10.08405,,,,,,,,,,,,,,,,,,
1736676455722,0.38595003,3.2020502,10.078951,,,,,,,,,,,,,,,,,,
1736676455732,0.41205,3.21195,10.029,,,,,,,,,,,,,,,,,,
1736676455742,0.42000002,3.2359502,9.991051,,,,,,,,,,,,,,,,,,
1736676455752,0.42000002,3.24495,9.95505,,,,,,,,,,,,,,,,,,
1736676455762,0.42000002,3.2910001,9.861,,,,,,,,,,,,,,,,,,
1736676455772,0.36495003,3.3270001,9.672001,,,,,,,,,,,,,,,,,,
1736676455781,0.34305,3.3000002,9.526051,,,,,,,,,,,,,,,,,,
1736676455791,0.35295,3.28395,9.568951,,,,,,,,,,,,,,,,,,
1736676455801,0.37395,3.28095,9.660001,,,,,,,,,,,,,,,,,,
1736676455811,0.41700003,3.3049502,9.66495,,,,,,,,,,,,,,,,,,
1736676455822,0.43905002,3.35505,9.64605,,,,,,,,,,,,,,,,,,
1736676455832,0.44400004,3.3769503,9.663,,,,,,,,,,,,,,,,,,
1736676455842,0.42705002,3.3630002,9.691051,,,,,,,,,,,,,,,,,,
1736676455852,0.41700003,3.3630002,9.700951,,,,,,,,,,,,,,,,,,
1736676455862,0.42195,3.348,9.699,,,,,,,,,,,,,,,,,,
1736676455872,0.37605003,3.35805,9.7560005,,,,,,,,,,,,,,,,,,
1736676455882,0.38805002,3.387,9.880051,,,,,,,,,,,,,,,,,,
1736676455892,0.40305,3.3769503,9.94305,,,,,,,,,,,,,,,,,,
1736676455901,0.39105,3.3720002,9.97095,,,,,,,,,,,,,,,,,,
1736676455911,0.40305,3.3460503,10.036051,,,,,,,,,,,,,,,,,,
1736676455921,0.36900002,3.3240001,10.113001,,,,,,,,,,,,,,,,,,
1736676455931,0.34995002,3.3649502,10.086,,,,,,,,,,,,,,,,,,
1736676455943,0.33105,3.3630002,10.042951,,,,,,,,,,,,,,,,,,
1736676455953,0.34305,3.3990002,10.077001,,,,,,,,,,,,,,,,,,
1736676455963,0.40305,3.4750502,10.134001,,,,,,,,,,,,,,,,,,
1736676455972,0.44595003,3.4729502,10.113001,,,,,,,,,,,,,,,,,,
1736676455982,0.46695003,3.4440002,10.110001,,,,,,,,,,,,,,,,,,
1736676455992,0.42900002,3.4320002,10.086,,,,,,,,,,,,,,,,,,
1736676456003,0.37905002,3.4110003,10.038,,,,,,,,,,,,,,,,,,
1736676456012,0.36705002,3.4009502,9.99495,,,,,,,,,,,,,,,,,,
1736676456023,0.41205,3.42,10.012051,,,,,,,,,,,,,,,,,,
1736676456032,0.48405004,3.4390502,10.033951,,,,,,,,,,,,,,,,,,
1736676456042,0.48900002,3.45795,10.029,,,,,,,,,,,,,,,,,,
1736676456052,0.47700003,3.45405,10.173,,,,,,,,,,,,,,,,,,
1736676456062,0.46005002,3.4630501,10.185,,,,,,,,,,,,,,,,,,
1736676456072,0.47895002,3.4680002,10.182,,,,,,,,,,,,,,,,,,
1736676456082,0.42000002,3.4080002,10.182,,,,,,,,,,,,,,,,,,
1736676456093,0.35295,3.35505,10.185,,,,,,,,,,,,,,,,,,
1736676456103,0.3,3.351,10.168051,,,,,,,,,,,,,,,,,,
1736676456113,0.22305001,3.3600001,10.06995,,,,,,,,,,,,,,,,,,
1736676456123,0.20400001,3.3670502,9.967051,,,,,,,,,,,,,,,,,,
1736676456132,0.252,3.4110003,9.92595,,,,,,,,,,,,,,,,,,
1736676456142,0.321,3.45795,9.84195,,,,,,,,,,,,,,,,,,
1736676456152,0.41700003,3.48495,9.80895,,,,,,,,,,,,,,,,,,
1736676456162,0.44805002,3.5020502,9.84,,,,,,,,,,,,,,,,,,
1736676456172,0.40995002,3.52095,9.868951,,,,,,,,,,,,,,,,,,
1736676456183,0.32595003,3.5370002,9.816001,,,,,,,,,,,,,,,,,,
1736676456194,0.264,3.55695,9.801001,,,,,,,,,,,,,,,,,,
1736676456204,0.22995001,3.5809503,9.79395,,,,,,,,,,,,,,,,,,
1736676456213,0.25005,3.6430502,9.769951,,,,,,,,,,,,,,,,,,
1736676456223,0.3,3.73095,9.715051,,,,,,,,,,,,,,,,,,
1736676456234,0.36900002,3.75795,9.65295,,,,,,,,,,,,,,,,,,
1736676456244,0.40500003,3.7890003,9.576,,,,,,,,,,,,,,,,,,
1736676456254,0.39105,3.8100002,9.5119505,,,,,,,,,,,,,,,,,,
1736676456264,0.34095,3.8220003,9.450001,,,,,,,,,,,,,,,,,,
1736676456274,0.26595002,3.8490002,9.415951,,,,,,,,,,,,,,,,,,
1736676456284,0.252,3.86505,9.435,,,,,,,,,,,,,,,,,,
1736676456294,0.25695002,3.8490002,9.5119505,,,,,,,,,,,,,,,,,,
1736676456304,0.27795002,3.8770502,9.535951,,,,,,,,,,,,,,,,,,
1736676456313,0.28800002,3.9210002,9.556951,,,,,,,,,,,,,,,,,,
1736676456323,0.264,3.9709501,9.493051,,,,,,,,,,,,,,,,,,
1736676456333,0.25395,3.9760501,9.394051,,,,,,,,,,,,,,,,,,
1736676456343,0.30195,3.9439502,9.427951,,,,,,,,,,,,,,,,,,
1736676456354,0.29505002,3.9090002,9.45195,,,,,,,,,,,,,,,,,,
1736676456363,0.27600002,3.8890502,9.45405,,,,,,,,,,,,,,,,,,
1736676456373,0.20895001,3.8800502,9.430051,,,,,,,,,,,,,,,,,,
1736676456383,0.13905,3.8890502,9.402,,,,,,,,,,,,,,,,,,
1736676456393,0.13905,3.9130502,9.44205,,,,,,,,,,,,,,,,,,
1736676456403,0.13695,3.97305,9.426001,,,,,,,,,,,,,,,,,,
1736676456414,0.16800001,4.0669503,9.36795,,,,,,,,,,,,,,,,,,
1736676456424,0.22995001,4.07595,9.291,,,,,,,,,,,,,,,,,,
1736676456435,0.264,4.098,9.238951,,,,,,,,,,,,,,,,,,
1736676456445,0.24495001,4.07595,9.232051,,,,,,,,,,,,,,,,,,
1736676456454,0.17295001,4.0020003,9.222,,,,,,,,,,,,,,,,,,
1736676456464,0.09195001,4.0069504,9.222,,,,,,,,,,,,,,,,,,
1736676456474,0.04095,4.01205,9.2029505,,,,,,,,,,,,,,,,,,
1736676456484,0.01695,4.01595,9.17895,,,,,,,,,,,,,,,,,,
1736676456494,0.060000002,4.026,9.21195,,,,,,,,,,,,,,,,,,
1736676456504,0.11805001,3.9850502,9.198001,,,,,,,,,,,,,,,,,,
1736676456515,0.135,3.9829502,9.177,,,,,,,,,,,,,,,,,,
1736676456525,0.17505,3.9780002,9.186001,,,,,,,,,,,,,,,,,,
1736676456534,0.18300001,4.05195,9.28695,,,,,,,,,,,,,,,,,,
1736676456544,0.171,4.098,9.47595,,,,,,,,,,,,,,,,,,
1736676456554,0.19905001,4.0810504,9.62895,,,,,,,,,,,,,,,,,,
1736676456564,0.171,4.03095,9.63405,,,,,,,,,,,,,,,,,,
1736676456574,0.15405001,4.00395,9.568951,,,,,,,,,,,,,,,,,,
1736676456584,0.12705001,3.9610503,9.5119505,,,,,,,,,,,,,,,,,,
1736676456594,0.12705001,3.93495,9.46905,,,,,,,,,,,,,,,,,,
1736676456604,0.12705001,3.9160502,9.47595,,,,,,,,,,,,,,,,,,
1736676456614,0.10605001,3.9610503,9.49005,,,,,,,,,,,,,,,,,,
1736676456624,0.079950005,4.0230002,9.52095,,,,,,,,,,,,,,,,,,
1736676456634,0.11100001,4.04295,9.59595,,,,,,,,,,,,,,,,,,
1736676456645,0.14895001,4.0350003,9.580951,,,,,,,,,,,,,,,,,,
1736676456655,0.171,3.9900002,9.507001,,,,,,,,,,,,,,,,,,
1736676456665,0.16800001,3.9559503,9.46605,,,,,,,,,,,,,,,,,,
1736676456676,0.17505,3.93705,9.385051,,,,,,,,,,,,,,,,,,
1736676456686,0.11805001,3.9970503,9.28695,,,,,,,,,,,,,,,,,,
1736676456696,0.08400001,4.059,9.24405,,,,,,,,,,,,,,,,,,
1736676456706,0.060000002,4.06395,9.220051,,,,,,,,,,,,,,,,,,
1736676456716,0.096,4.03305,9.28695,,,,,,,,,,,,,,,,,,
1736676456726,0.13005,4.05195,9.34395,,,,,,,,,,,,,,,,,,
1736676456735,0.15900001,4.05,9.346951,,,,,,,,,,,,,,,,,,
1736676456745,0.18705001,4.0140004,9.379951,,,,,,,,,,,,,,,,,,
1736676456755,0.192,4.026,9.394051,,,,,,,,,,,,,,,,,,
1736676456765,0.18705001,4.0350003,9.351001,,,,,,,,,,,,,,,,,,
1736676456776,0.16305001,3.9880502,9.318001,,,,,,,,,,,,,,,,,,
1736676456785,0.11505,4.0020003,9.32295,,,,,,,,,,,,,,,,,,
1736676456796,0.087000005,4.05195,9.327001,,,,,,,,,,,,,,,,,,
1736676456806,0.034050003,4.08795,9.271951,,,,,,,,,,,,,,,,,,
1736676456815,0.003,4.11,9.25605,,,,,,,,,,,,,,,,,,
1736676456825,-0.02205,4.07595,9.222,,,,,,,,,,,,,,,,,,
1736676456835,-0.018000001,4.04505,9.198001,,,,,,,,,,,,,,,,,,
1736676456845,-0.006,3.9610503,9.17205,,,,,,,,,,,,,,,,,,
1736676456855,-0.030000001,3.9540002,9.198001,,,,,,,,,,,,,,,,,,
1736676456865,-0.039,4.0090504,9.247951,,,,,,,,,,,,,,,,,,
1736676456875,-0.03705,4.0620003,9.354,,,,,,,,,,,,,,,,,,
1736676456886,0.027,4.086,9.397051,,,,,,,,,,,,,,,,,,
1736676456896,0.058050003,4.12395,9.282001,,,,,,,,,,,,,,,,,,
1736676456907,0.043950003,4.16505,9.16005,,,,,,,,,,,,,,,,,,
1736676456916,0.034050003,4.17705,9.081,,,,,,,,,,,,,,,,,,
1736676456926,0.015000001,4.1460004,9.0070505,,,,,,,,,,,,,,,,,,
1736676456936,0.00795,4.13805,8.96595,,,,,,,,,,,,,,,,,,
1736676456946,0.036000002,4.13595,9.066,,,,,,,,,,,,,,,,,,
1736676456957,0.028950002,4.1670003,9.186001,,,,,,,,,,,,,,,,,,
1736676456967,-0.003,4.2319503,9.21195,,,,,,,,,,,,,,,,,,
1736676456976,-0.02205,4.2840004,9.22395,,,,,,,,,,,,,,,,,,
1736676456986,-0.027,4.25805,9.291,,,,,,,,,,,,,,,,,,
1736676456997,0.00795,4.263,9.295951,,,,,,,,,,,,,,,,,,
1736676457006,0.04095,4.23705,9.19995,,,,,,,,,,,,,,,,,,
1736676457016,0.06795,4.20795,9.14505,,,,,,,,,,,,,,,,,,
1736676457026,0.075,4.1530504,9.129001,,,,,,,,,,,,,,,,,,
1736676457037,0.060000002,4.11705,9.121051,,,,,,,,,,,,,,,,,,
1736676457047,0.015000001,4.12395,9.153001,,,,,,,,,,,,,,,,,,
1736676457057,-0.042000003,4.15005,9.16905,,,,,,,,,,,,,,,,,,
1736676457067,-0.054,4.1530504,9.117001,,,,,,,,,,,,,,,,,,
1736676457076,-0.06795,4.14795,9.033,,,,,,,,,,,,,,,,,,
1736676457086,-0.09900001,4.155,8.93505,,,,,,,,,,,,,,,,,,
1736676457097,-0.06795,4.1410503,8.841001,,,,,,,,,,,,,,,,,,
1736676457106,-0.03195,4.1460004,8.808001,,,,,,,,,,,,,,,,,,
1736676457117,0.01305,4.2049503,8.853001,,,,,,,,,,,,,,,,,,
1736676457127,0.0010500001,4.22205,8.887051,,,,,,,,,,,,,,,,,,
1736676457137,-0.03705,4.203,8.904,,,,,,,,,,,,,,,,,,
1736676457147,-0.03195,4.19595,8.941951,,,,,,,,,,,,,,,,,,
1736676457157,-0.054,4.1790004,8.911051,,,,,,,,,,,,,,,,,,
1736676457167,-0.09195001,4.143,8.865001,,,,,,,,,,,,,,,,,,
1736676457177,-0.054,4.131,8.96805,,,,,,,,,,,,,,,,,,
1736676457187,-0.0010500001,4.1410503,9.09,,,,,,,,,,,,,,,,,,
1736676457198,0.034050003,4.158,9.16005,,,,,,,,,,,,,,,,,,
1736676457208,0.076950006,4.1929502,9.208051,,,,,,,,,,,,,,,,,,
1736676457217,0.060000002,4.17705,9.226951,,,,,,,,,,,,,,,,,,
1736676457227,-0.010050001,4.1670003,9.265051,,,,,,,,,,,,,,,,,,
1736676457237,-0.06795,4.15005,9.31095,,,,,,,,,,,,,,,,,,
1736676457247,-0.08205,4.0999503,9.283951,,,,,,,,,,,,,,,,,,
1736676457258,-0.01995,4.0950003,9.208051,,,,,,,,,,,,,,,,,,
1736676457267,0.027,4.0669503,9.078,,,,,,,,,,,,,,,,,,
1736676457277,0.039,4.06395,8.953951,,,,,,,,,,,,,,,,,,
1736676457287,0.043950003,4.06395,8.920051,,,,,,,,,,,,,,,,,,
1736676457297,0.01305,4.0620003,8.941951,,,,,,,,,,,,,,,,,,
1736676457307,-0.07005,4.0810504,8.911051,,,,,,,,,,,,,,,,,,
1736676457317,-0.10395,4.098,8.920051,,,,,,,,,,,,,,,,,,
1736676457327,-0.09705,4.04505,8.96595,,,,,,,,,,,,,,,,,,
1736676457337,-0.06795,4.03305,8.98995,,,,,,,,,,,,,,,,,,
1736676457348,-0.06105,4.01205,9.02595,,,,,,,,,,,,,,,,,,
1736676457358,-0.087000005,3.9949503,9.09,,,,,,,,,,,,,,,,,,
1736676457368,-0.06105,4.03305,9.196051,,,,,,,,,,,,,,,,,,
1736676457378,-0.01305,4.0789504,9.232051,,,,,,,,,,,,,,,,,,
1736676457388,0.064950004,4.1070004,9.222,,,,,,,,,,,,,,,,,,
1736676457399,0.11805001,4.12395,9.198001,,,,,,,,,,,,,,,,,,
1736676457409,0.096,4.12605,9.102,,,,,,,,,,,,,,,,,,
1736676457418,0.048,4.12395,8.98005,,,,,,,,,,,,,,,,,,
1736676457428,0.003,4.1020503,8.916,,,,,,,,,,,,,,,,,,
1736676457438,-0.03705,4.06395,8.901,,,,,,,,,,,,,,,,,,
1736676457448,-0.039,4.026,8.953951,,,,,,,,,,,,,,,,,,
1736676457459,-0.00795,3.9919503,8.985001,,,,,,,,,,,,,,,,,,
1736676457469,-0.0010500001,3.9709501,9.057,,,,,,,,,,,,,,,,,,
1736676457478,-0.03195,3.9490502,9.114,,,,,,,,,,,,,,,,,,
1736676457488,-0.07305,3.9280503,9.13605,,,,,,,,,,,,,,,,,,
1736676457499,-0.112950005,3.9060001,9.114,,,,,,,,,,,,,,,,,,
1736676457509,-0.13695,3.9060001,9.066,,,,,,,,,,,,,,,,,,
1736676457518,-0.123,3.9250503,9.00405,,,,,,,,,,,,,,,,,,
1736676457528,-0.051000003,3.9420002,8.905951,,,,,,,,,,,,,,,,,,
1736676457538,-0.003,3.9559503,8.820001,,,,,,,,,,,,,,,,,,
1736676457548,-0.01305,3.9420002,8.853001,,,,,,,,,,,,,,,,,,
1736676457559,-0.03195,3.97305,8.932051,,,,,,,,,,,,,,,,,,
1736676457569,-0.087000005,3.9900002,8.94705,,,,,,,,,,,,,,,,,,
1736676457578,-0.11595,4.00395,8.937,,,,,,,,,,,,,,,,,,
1736676457590,-0.12105001,4.0399504,8.923051,,,,,,,,,,,,,,,,,,
1736676457600,-0.11100001,4.03095,8.908051,,,,,,,,,,,,,,,,,,
1736676457610,-0.042000003,4.04505,8.904,,,,,,,,,,,,,,,,,,
1736676457619,-0.0010500001,4.03305,8.875051,,,,,,,,,,,,,,,,,,
1736676457629,0.027,4.01895,8.868,,,,,,,,,,,,,,,,,,
1736676457639,0.015000001,4.04295,8.865001,,,,,,,,,,,,,,,,,,
1736676457649,0.0049500004,4.05195,8.887051,,,,,,,,,,,,,,,,,,
1736676457659,-0.025050001,4.0470004,8.916,,,,,,,,,,,,,,,,,,
1736676457669,-0.04605,4.0350003,8.928,,,,,,,,,,,,,,,,,,
1736676457679,-0.07005,4.0090504,8.832001,,,,,,,,,,,,,,,,,,
1736676457689,-0.07305,3.9900002,8.793,,,,,,,,,,,,,,,,,,
1736676457700,-0.054,3.9949503,8.773951,,,,,,,,,,,,,,,,,,
1736676457709,-0.015000001,4.00395,8.77005,,,,,,,,,,,,,,,,,,
1736676457720,-0.010050001,4.03305,8.73795,,,,,,,,,,,,,,,,,,
1736676457730,-0.00795,4.03095,8.74995,,,,,,,,,,,,,,,,,,
1736676457739,0.01305,4.02105,8.7960005,,,,,,,,,,,,,,,,,,
1736676457749,-0.015000001,4.01895,8.841001,,,,,,,,,,,,,,,,,,
1736676457759,-0.043950003,4.0350003,8.86095,,,,,,,,,,,,,,,,,,
1736676457769,-0.10605001,3.966,8.917951,,,,,,,,,,,,,,,,,,
1736676457780,-0.14895001,3.9180002,9.0709505,,,,,,,,,,,,,,,,,,
1736676457790,-0.17595,3.9280503,9.106951,,,,,,,,,,,,,,,,,,
1736676457799,-0.20400001,3.9280503,9.064051,,,,,,,,,,,,,,,,,,
1736676457809,-0.15195,3.9469502,9.02295,,,,,,,,,,,,,,,,,,
1736676457820,-0.14205001,3.9970503,8.93505,,,,,,,,,,,,,,,,,,
1736676457830,-0.09195001,4.01895,8.82495,,,,,,,,,,,,,,,,,,
1736676457840,-0.07305,4.026,8.767051,,,,,,,,,,,,,,,,,,
1736676457850,-0.08205,4.06395,8.748,,,,,,,,,,,,,,,,,,
1736676457860,-0.06795,4.1020503,8.68605,,,,,,,,,,,,,,,,,,
1736676457870,-0.09195001,4.0740004,8.66205,,,,,,,,,,,,,,,,,,
1736676457881,-0.07305,4.05705,8.70495,,,,,,,,,,,,,,,,,,
1736676457890,-0.043950003,4.026,8.764951,,,,,,,,,,,,,,,,,,
1736676457900,-0.042000003,4.01595,8.84895,,,,,,,,,,,,,,,,,,
1736676457910,-0.025050001,4.04295,8.904,,,,,,,,,,,,,,,,,,
1736676457921,-0.03195,4.059,8.875051,,,,,,,,,,,,,,,,,,
1736676457931,-0.08505,4.026,8.832001,,,,,,,,,,,,,,,,,,
1736676457940,-0.13305001,3.97305,8.781,,,,,,,,,,,,,,,,,,
1736676457950,-0.12495001,3.9520502,8.776951,,,,,,,,,,,,,,,,,,
1736676457961,-0.11595,3.97305,8.86305,,,,,,,,,,,,,,,,,,
1736676457971,-0.12495001,3.9589503,8.96805,,,,,,,,,,,,,,,,,,
1736676457980,-0.10395,3.9709501,9.082951,,,,,,,,,,,,,,,,,,
1736676457990,-0.11595,4.01205,9.106951,,,,,,,,,,,,,,,,,,
1736676458001,-0.14895001,4.026,9.150001,,,,,,,,,,,,,,,,,,
1736676458011,-0.13695,4.02105,9.1380005,,,,,,,,,,,,,,,,,,
1736676458021,-0.12105001,4.02105,9.00405,,,,,,,,,,,,,,,,,,
1736676458030,-0.11595,4.01205,8.917951,,,,,,,,,,,,,,,,,,
1736676458040,-0.094050005,4.01205,8.905951,,,,,,,,,,,,,,,,,,
1736676458052,-0.076950006,3.9949503,8.875051,,,,,,,,,,,,,,,,,,
1736676458061,-0.087000005,4.0069504,8.904,,,,,,,,,,,,,,,,,,
1736676458071,-0.10395,4.0399504,8.997001,,,,,,,,,,,,,,,,,,
1736676458081,-0.12795001,4.071,8.98005,,,,,,,,,,,,,,,,,,
1736676458091,-0.156,4.04295,8.899051,,,,,,,,,,,,,,,,,,
1736676458102,-0.15195,4.01895,8.82195,,,,,,,,,,,,,,,,,,
