timestamp,acc_x,acc_y,acc_z,mag_x,mag_y,mag_z,gra_x,gra_y,gra_z,gyr_x,gyr_y,gyr_z,linear_x,linear_y,linear_z,rot_x,rot_y,rot_z,light,pressure,proximity
1736674579098,-1.04505,2.7930002,9.757951,,,,,,,,,,,,,,,,,,
1736674579108,-1.1410501,2.84295,10.024051,,,,,,,,,,,,,,,,,,
1736674579118,-1.4130001,2.8500001,10.17,,,,,,,,,,,,,,,,,,
1736674579128,-1.3750501,2.9340003,10.038,,,,,,,,,,,,,,,,,,
1736674579139,-1.30095,3.0229502,9.865951,,,,,,,,,,,,,,,,,,
1736674579149,-1.3080001,3.042,9.706051,,,,,,,,,,,,,,,,,,
1736674579158,-1.31805,3.015,9.59805,,,,,,,,,,,,,,,,,,
1736674579168,-1.3270501,2.982,9.531,,,,,,,,,,,,,,,,,,
1736674579178,-1.2790501,2.94105,9.579,,,,,,,,,,,,,,,,,,
1736674579188,-1.2079501,2.9220002,9.72,,,,,,,,,,,,,,,,,,
1736674579198,-1.1550001,2.8549502,9.835051,,,,,,,,,,,,,,,,,,
1736674579208,-1.1550001,2.769,9.89505,,,,,,,,,,,,,,,,,,
1736674579219,-1.2199501,2.7450001,9.90705,,,,,,,,,,,,,,,,,,
1736674579229,-1.23105,2.74005,9.991051,,,,,,,,,,,,,,,,,,
1736674579239,-1.2750001,2.74005,10.086,,,,,,,,,,,,,,,,,,
1736674579248,-1.31295,2.80005,10.156051,,,,,,,,,,,,,,,,,,
1736674579258,-1.33905,2.84805,10.1650505,,,,,,,,,,,,,,,,,,
1736674579268,-1.3080001,2.8600502,10.182,,,,,,,,,,,,,,,,,,
1736674579278,-1.27005,2.83395,10.158001,,,,,,,,,,,,,,,,,,
1736674579288,-1.23405,2.80695,10.12695,,,,,,,,,,,,,,,,,,
1736674579298,-1.2240001,2.8240502,10.09095,,,,,,,,,,,,,,,,,,
1736674579309,-1.19295,2.86695,9.97605,,,,,,,,,,,,,,,,,,
1736674579319,-1.107,2.8890002,9.913951,,,,,,,,,,,,,,,,,,
1736674579330,-1.07295,2.91,9.89505,,,,,,,,,,,,,,,,,,
1736674579339,-1.00905,2.9200501,9.832951,,,,,,,,,,,,,,,,,,
1736674579349,-0.94395006,2.8890002,9.74205,,,,,,,,,,,,,,,,,,
1736674579360,-0.95595,2.8890002,9.78705,,,,,,,,,,,,,,,,,,
1736674579369,-1.04205,2.86905,9.897,,,,,,,,,,,,,,,,,,
1736674579380,-1.1410501,2.8240502,10.05795,,,,,,,,,,,,,,,,,,
1736674579389,-1.164,2.805,10.210951,,,,,,,,,,,,,,,,,,
1736674579399,-1.1190001,2.7949502,10.28295,,,,,,,,,,,,,,,,,,
1736674579409,-1.0570501,2.769,10.25895,,,,,,,,,,,,,,,,,,
1736674579419,-0.95400006,2.7829502,10.180051,,,,,,,,,,,,,,,,,,
1736674579430,-0.89205,2.8260002,10.041,,,,,,,,,,,,,,,,,,
1736674579439,-0.88695,2.8549502,9.901951,,,,,,,,,,,,,,,,,,
1736674579449,-0.83595,2.87895,9.700951,,,,,,,,,,,,,,,,,,
1736674579459,-0.786,2.9269502,9.65505,,,,,,,,,,,,,,,,,,
1736674579470,-0.84795004,2.9320502,9.672001,,,,,,,,,,,,,,,,,,
1736674579480,-0.90795004,2.9269502,9.699,,,,,,,,,,,,,,,,,,
1736674579489,-0.90105003,2.9509501,9.84,,,,,,,,,,,,,,,,,,
1736674579500,-0.86805004,2.9650502,9.969001,,,,,,,,,,,,,,,,,,
1736674579509,-0.86805004,2.9599502,10.003051,,,,,,,,,,,,,,,,,,
1736674579520,-0.89205,2.9200501,9.98295,,,,,,,,,,,,,,,,,,
1736674579529,-0.915,2.8860002,9.900001,,,,,,,,,,,,,,,,,,
1736674579540,-0.86505,2.90805,9.835051,,,,,,,,,,,,,,,,,,
1736674579550,-0.786,2.9200501,9.79695,,,,,,,,,,,,,,,,,,
1736674579560,-0.74805003,2.90505,9.801001,,,,,,,,,,,,,,,,,,
1736674579570,-0.74505,2.84805,9.835051,,,,,,,,,,,,,,,,,,
1736674579580,-0.75705004,2.84295,9.897,,,,,,,,,,,,,,,,,,
1736674579591,-0.77205,2.83395,9.95505,,,,,,,,,,,,,,,,,,
1736674579601,-0.79800004,2.83095,10.08195,,,,,,,,,,,,,,,,,,
1736674579610,-0.78105,2.841,10.192051,,,,,,,,,,,,,,,,,,
1736674579620,-0.72900003,2.84505,10.22805,,,,,,,,,,,,,,,,,,
1736674579630,-0.72405005,2.8600502,10.213051,,,,,,,,,,,,,,,,,,
1736674579641,-0.68805003,2.8500001,10.174951,,,,,,,,,,,,,,,,,,
1736674579650,-0.666,2.8140001,10.054951,,,,,,,,,,,,,,,,,,
1736674579660,-0.68295,2.84805,9.981001,,,,,,,,,,,,,,,,,,
1736674579670,-0.67605,2.8240502,9.871051,,,,,,,,,,,,,,,,,,
1736674579680,-0.66195005,2.7949502,9.780001,,,,,,,,,,,,,,,,,,
1736674579691,-0.66195005,2.8219502,9.74205,,,,,,,,,,,,,,,,,,
1736674579701,-0.68295,2.8290002,9.736951,,,,,,,,,,,,,,,,,,
1736674579710,-0.67605,2.84805,9.801001,,,,,,,,,,,,,,,,,,
1736674579720,-0.65895003,2.86905,9.889951,,,,,,,,,,,,,,,,,,
1736674579731,-0.66195005,2.8530002,9.95205,,,,,,,,,,,,,,,,,,
1736674579740,-0.68805003,2.8600502,9.979051,,,,,,,,,,,,,,,,,,
1736674579750,-0.69795,2.8549502,9.97395,,,,,,,,,,,,,,,,,,
1736674579760,-0.702,2.83095,10.015051,,,,,,,,,,,,,,,,,,
1736674579771,-0.65400004,2.838,9.93795,,,,,,,,,,,,,,,,,,
1736674579781,-0.64500004,2.8650002,9.98295,,,,,,,,,,,,,,,,,,
1736674579791,-0.72900003,2.8600502,10.024051,,,,,,,,,,,,,,,,,,
1736674579802,-0.762,2.80995,9.98295,,,,,,,,,,,,,,,,,,
1736674579811,-0.717,2.8260002,9.969001,,,,,,,,,,,,,,,,,,
1736674579821,-0.70695,2.90505,10.005,,,,,,,,,,,,,,,,,,
1736674579831,-0.726,2.9170501,9.979051,,,,,,,,,,,,,,,,,,
1736674579841,-0.753,2.91,9.9210005,,,,,,,,,,,,,,,,,,
1736674579851,-0.777,2.88105,9.80595,,,,,,,,,,,,,,,,,,
1736674579862,-0.71205,2.8570502,9.769951,,,,,,,,,,,,,,,,,,
1736674579871,-0.633,2.8620002,9.715051,,,,,,,,,,,,,,,,,,
1736674579881,-0.60405004,2.8620002,9.733951,,,,,,,,,,,,,,,,,,
1736674579891,-0.597,2.8620002,9.82995,,,,,,,,,,,,,,,,,,
1736674579901,-0.633,2.8290002,9.92595,,,,,,,,,,,,,,,,,,
1736674579912,-0.67095006,2.838,10.02705,,,,,,,,,,,,,,,,,,
1736674579921,-0.65205,2.8170002,10.09395,,,,,,,,,,,,,,,,,,
1736674579931,-0.573,2.7640502,10.02705,,,,,,,,,,,,,,,,,,
1736674579942,-0.60405004,2.76195,10.146001,,,,,,,,,,,,,,,,,,
1736674579951,-0.702,2.74305,10.25895,,,,,,,,,,,,,,,,,,
1736674579961,-0.72900003,2.7469501,10.29705,,,,,,,,,,,,,,,,,,
1736674579972,-0.70005006,2.8189502,10.2949505,,,,,,,,,,,,,,,,,,
1736674579982,-0.67095006,2.8219502,10.174951,,,,,,,,,,,,,,,,,,
1736674579991,-0.62595004,2.84505,10.009951,,,,,,,,,,,,,,,,,,
1736674580002,-0.597,2.901,9.95895,,,,,,,,,,,,,,,,,,
1736674580012,-0.57795,2.9170501,9.94005,,,,,,,,,,,,,,,,,,
1736674580023,-0.58995,2.88105,9.8880005,,,,,,,,,,,,,,,,,,
1736674580032,-0.54195005,2.84805,9.78195,,,,,,,,,,,,,,,,,,
1736674580042,-0.48195,2.8620002,9.904051,,,,,,,,,,,,,,,,,,
1736674580053,-0.55395,2.8219502,10.089001,,,,,,,,,,,,,,,,,,
1736674580062,-0.56100005,2.7469501,10.11795,,,,,,,,,,,,,,,,,,
1736674580072,-0.49605003,2.74005,10.10805,,,,,,,,,,,,,,,,,,
1736674580083,-0.42900002,2.7280502,10.08195,,,,,,,,,,,,,,,,,,
1736674580092,-0.39105,2.7139502,10.003051,,,,,,,,,,,,,,,,,,
1736674580102,-0.36705002,2.74305,9.95895,,,,,,,,,,,,,,,,,,
1736674580112,-0.393,2.7139502,9.871051,,,,,,,,,,,,,,,,,,
1736674580122,-0.42495003,2.7229502,9.79395,,,,,,,,,,,,,,,,,,
1736674580133,-0.384,2.7450001,9.724951,,,,,,,,,,,,,,,,,,
1736674580142,-0.32205,2.7280502,9.72,,,,,,,,,,,,,,,,,,
1736674580152,-0.324,2.6899502,9.739051,,,,,,,,,,,,,,,,,,
1736674580162,-0.34095,2.6830502,9.8209505,,,,,,,,,,,,,,,,,,
1736674580172,-0.37005,2.709,9.837001,,,,,,,,,,,,,,,,,,
1736674580182,-0.37695003,2.7280502,9.871051,,,,,,,,,,,,,,,,,,
1736674580193,-0.37005,2.733,9.883051,,,,,,,,,,,,,,,,,,
1736674580203,-0.372,2.7520502,9.8539505,,,,,,,,,,,,,,,,,,
1736674580212,-0.34800002,2.778,9.816001,,,,,,,,,,,,,,,,,,
1736674580223,-0.31395,2.7930002,9.79395,,,,,,,,,,,,,,,,,,
1736674580233,-0.28305,2.7550502,9.801001,,,,,,,,,,,,,,,,,,
1736674580243,-0.24300002,2.6899502,9.856951,,,,,,,,,,,,,,,,,,
1736674580253,-0.22800002,2.6830502,9.89505,,,,,,,,,,,,,,,,,,
1736674580263,-0.19005,2.673,9.909,,,,,,,,,,,,,,,,,,
1736674580273,-0.19500001,2.66805,9.81105,,,,,,,,,,,,,,,,,,
1736674580284,-0.24000001,2.6560502,9.696,,,,,,,,,,,,,,,,,,
1736674580294,-0.26205,2.6830502,9.552,,,,,,,,,,,,,,,,,,
1736674580303,-0.21900001,2.7589502,9.53295,,,,,,,,,,,,,,,,,,
1736674580313,-0.18795002,2.7930002,9.571951,,,,,,,,,,,,,,,,,,
1736674580323,-0.192,2.8260002,9.60795,,,,,,,,,,,,,,,,,,
1736674580333,-0.19695,2.7880502,9.706051,,,,,,,,,,,,,,,,,,
1736674580343,-0.20700002,2.766,9.77805,,,,,,,,,,,,,,,,,,
1736674580354,-0.22305001,2.73105,9.77505,,,,,,,,,,,,,,,,,,
1736674580363,-0.26205,2.70705,9.780001,,,,,,,,,,,,,,,,,,
1736674580373,-0.27405003,2.7640502,9.859051,,,,,,,,,,,,,,,,,,
1736674580383,-0.28095,2.838,9.92805,,,,,,,,,,,,,,,,,,
1736674580393,-0.30705002,2.901,9.991051,,,,,,,,,,,,,,,,,,
1736674580403,-0.324,2.90805,9.981001,,,,,,,,,,,,,,,,,,
1736674580414,-0.31905,2.9509501,9.94995,,,,,,,,,,,,,,,,,,
1736674580423,-0.28305,2.9560502,9.9210005,,,,,,,,,,,,,,,,,,
1736674580433,-0.28305,2.901,9.856951,,,,,,,,,,,,,,,,,,
1736674580443,-0.24000001,2.8980002,9.76605,,,,,,,,,,,,,,,,,,
1736674580453,-0.15405001,2.8930502,9.708,,,,,,,,,,,,,,,,,,
1736674580465,-0.10395,2.83395,9.63105,,,,,,,,,,,,,,,,,,
1736674580474,-0.079950005,2.7570002,9.552,,,,,,,,,,,,,,,,,,
1736674580485,-0.058050003,2.6920502,9.48495,,,,,,,,,,,,,,,,,,
1736674580494,0.010050001,2.6200502,9.471001,,,,,,,,,,,,,,,,,,
1736674580504,0.123,2.6200502,9.3490505,,,,,,,,,,,,,,,,,,
1736674580514,0.094050005,2.6749501,9.346951,,,,,,,,,,,,,,,,,,
1736674580524,-0.13005,2.70195,9.438001,,,,,,,,,,,,,,,,,,
1736674580534,-0.171,2.7259502,9.459001,,,,,,,,,,,,,,,,,,
1736674580544,-0.12105001,2.77395,9.49995,,,,,,,,,,,,,,,,,,
1736674580554,-0.10095,2.769,9.505051,,,,,,,,,,,,,,,,,,
1736674580564,-0.10605001,2.73495,9.4810505,,,,,,,,,,,,,,,,,,
1736674580575,-0.17295001,2.74005,9.531,,,,,,,,,,,,,,,,,,
1736674580584,-0.25500003,2.7450001,9.624001,,,,,,,,,,,,,,,,,,
1736674580594,-0.30495003,2.7949502,9.768001,,,,,,,,,,,,,,,,,,
1736674580604,-0.33795002,2.8530002,9.856951,,,,,,,,,,,,,,,,,,
1736674580614,-0.35505003,2.8860002,9.873,,,,,,,,,,,,,,,,,,
1736674580624,-0.37905002,2.91,9.844951,,,,,,,,,,,,,,,,,,
1736674580634,-0.39795002,2.9320502,9.79395,,,,,,,,,,,,,,,,,,
1736674580645,-0.37005,2.8980002,9.736951,,,,,,,,,,,,,,,,,,
1736674580655,-0.40095,2.8570502,9.691051,,,,,,,,,,,,,,,,,,
1736674580664,-0.35505003,2.87205,9.64095,,,,,,,,,,,,,,,,,,
1736674580675,-0.26205,2.8650002,9.660001,,,,,,,,,,,,,,,,,,
1736674580685,-0.17595,2.81205,9.651,,,,,,,,,,,,,,,,,,
1736674580695,-0.12105001,2.7259502,9.574051,,,,,,,,,,,,,,,,,,
1736674580705,-0.10095,2.70705,9.459001,,,,,,,,,,,,,,,,,,
1736674580715,-0.12795001,2.70705,9.387,,,,,,,,,,,,,,,,,,
1736674580725,-0.08505,2.7139502,9.415951,,,,,,,,,,,,,,,,,,
1736674580736,-0.051000003,2.733,9.385051,,,,,,,,,,,,,,,,,,
1736674580745,-0.076950006,2.70705,9.35595,,,,,,,,,,,,,,,,,,
1736674580755,-0.087000005,2.664,9.35595,,,,,,,,,,,,,,,,,,
1736674580766,-0.054,2.637,9.427951,,,,,,,,,,,,,,,,,,
1736674580776,-0.05595,2.6179502,9.49005,,,,,,,,,,,,,,,,,,
1736674580785,-0.11805001,2.6130002,9.526051,,,,,,,,,,,,,,,,,,
1736674580795,-0.19995001,2.63505,9.576,,,,,,,,,,,,,,,,,,
1736674580806,-0.23505001,2.73495,9.60795,,,,,,,,,,,,,,,,,,
1736674580815,-0.30495003,2.7949502,9.579,,,,,,,,,,,,,,,,,,
1736674580826,-0.36495003,2.8570502,9.59805,,,,,,,,,,,,,,,,,,
1736674580836,-0.34305,2.8890002,9.64095,,,,,,,,,,,,,,,,,,
1736674580845,-0.31395,2.8530002,9.648001,,,,,,,,,,,,,,,,,,
1736674580856,-0.31005,2.81205,9.651,,,,,,,,,,,,,,,,,,
1736674580865,-0.29505002,2.766,9.691051,,,,,,,,,,,,,,,,,,
1736674580875,-0.303,2.709,9.715051,,,,,,,,,,,,,,,,,,
1736674580886,-0.33105,2.6850002,9.66495,,,,,,,,,,,,,,,,,,
1736674580895,-0.35295,2.6800501,9.62895,,,,,,,,,,,,,,,,,,
1736674580905,-0.35805002,2.709,9.58395,,,,,,,,,,,,,,,,,,
1736674580916,-0.34800002,2.7210002,9.547951,,,,,,,,,,,,,,,,,,
1736674580926,-0.30705002,2.7139502,9.44505,,,,,,,,,,,,,,,,,,
1736674580937,-0.26205,2.7229502,9.354,,,,,,,,,,,,,,,,,,
1736674580946,-0.19995001,2.7139502,9.295951,,,,,,,,,,,,,,,,,,
1736674580956,-0.147,2.664,9.295951,,,,,,,,,,,,,,,,,,
1736674580967,-0.10605001,2.6130002,9.27,,,,,,,,,,,,,,,,,,
1736674580976,-0.11805001,2.59395,9.26805,,,,,,,,,,,,,,,,,,
1736674580986,-0.17295001,2.604,9.31305,,,,,,,,,,,,,,,,,,
1736674580996,-0.20400001,2.628,9.406051,,,,,,,,,,,,,,,,,,
1736674581006,-0.19695,2.63205,9.47295,,,,,,,,,,,,,,,,,,
1736674581017,-0.231,2.60595,9.535951,,,,,,,,,,,,,,,,,,
1736674581027,-0.24300002,2.62995,9.6,,,,,,,,,,,,,,,,,,
1736674581036,-0.20205002,2.6800501,9.739051,,,,,,,,,,,,,,,,,,
1736674581046,-0.16605,2.6470501,9.852,,,,,,,,,,,,,,,,,,
1736674581057,-0.20895001,2.568,9.868951,,,,,,,,,,,,,,,,,,
1736674581066,-0.28305,2.5530002,9.77295,,,,,,,,,,,,,,,,,,
1736674581076,-0.279,2.5819502,9.699,,,,,,,,,,,,,,,,,,
1736674581086,-0.22305001,2.6160002,9.61905,,,,,,,,,,,,,,,,,,
1736674581097,-0.18795002,2.628,9.493051,,,,,,,,,,,,,,,,,,
1736674581106,-0.15900001,2.6110501,9.37005,,,,,,,,,,,,,,,,,,
1736674581116,-0.156,2.5849502,9.28005,,,,,,,,,,,,,,,,,,
1736674581126,-0.16095,2.57505,9.262951,,,,,,,,,,,,,,,,,,
1736674581136,-0.16605,2.5800002,9.24405,,,,,,,,,,,,,,,,,,
1736674581146,-0.19695,2.5729501,9.2029505,,,,,,,,,,,,,,,,,,
1736674581157,-0.18495001,2.5510502,9.16695,,,,,,,,,,,,,,,,,,
1736674581168,-0.171,2.532,9.16905,,,,,,,,,,,,,,,,,,
1736674581177,-0.17595,2.53395,9.20505,,,,,,,,,,,,,,,,,,
1736674581187,-0.18300001,2.5099502,9.31995,,,,,,,,,,,,,,,,,,
1736674581198,-0.19005,2.50095,9.430051,,,,,,,,,,,,,,,,,,
1736674581208,-0.27600002,2.50305,9.49695,,,,,,,,,,,,,,,,,,
1736674581217,-0.324,2.53695,9.53295,,,,,,,,,,,,,,,,,,
1736674581228,-0.30495003,2.5819502,9.559951,,,,,,,,,,,,,,,,,,
1736674581237,-0.279,2.60805,9.523951,,,,,,,,,,,,,,,,,,
1736674581247,-0.35805002,2.5729501,9.49695,,,,,,,,,,,,,,,,,,
1736674581257,-0.40305,2.5489502,9.615001,,,,,,,,,,,,,,,,,,
1736674581267,-0.33105,2.53905,9.744,,,,,,,,,,,,,,,,,,
1736674581277,-0.22800002,2.532,9.883051,,,,,,,,,,,,,,,,,,
1736674581288,-0.20205002,2.5150502,9.9210005,,,,,,,,,,,,,,,,,,
1736674581297,-0.19695,2.49405,9.847051,,,,,,,,,,,,,,,,,,
1736674581307,-0.19695,2.50095,9.73005,,,,,,,,,,,,,,,,,,
1736674581317,-0.19005,2.53905,9.552,,,,,,,,,,,,,,,,,,
1736674581327,-0.25905,2.592,9.430051,,,,,,,,,,,,,,,,,,
1736674581338,-0.30705002,2.60805,9.403951,,,,,,,,,,,,,,,,,,
1736674581347,-0.279,2.6200502,9.411,,,,,,,,,,,,,,,,,,
1736674581357,-0.18300001,2.59605,9.47595,,,,,,,,,,,,,,,,,,
1736674581367,-0.18495001,2.53905,8.941951,,,,,,,,,,,,,,,,,,
1736674581377,-0.36495003,2.6590502,8.02305,,,,,,,,,,,,,,,,,,
1736674581388,-0.28800002,2.7139502,7.7689505,,,,,,,,,,,,,,,,,,
1736674581398,-0.087000005,2.60595,8.667001,,,,,,,,,,,,,,,,,,
1736674581409,-0.04605,2.46495,9.427951,,,,,,,,,,,,,,,,,,
1736674581419,-0.064950004,2.4409502,9.844951,,,,,,,,,,,,,,,,,,
1736674581428,-0.23295002,2.3430002,10.347,,,,,,,,,,,,,,,,,,
1736674581438,-0.37905002,2.32395,10.6039505,,,,,,,,,,,,,,,,,,
1736674581449,-0.60195005,2.49405,10.489051,,,,,,,,,,,,,,,,,,
1736674581458,-0.52995,2.6160002,10.29195,,,,,,,,,,,,,,,,,,
1736674581468,-0.33795002,2.66595,10.161,,,,,,,,,,,,,,,,,,
1736674581479,-0.216,2.6590502,9.94995,,,,,,,,,,,,,,,,,,
1736674579133,,,,-15.4125,-34.800003,-24.056252,,,,,,,,,,,,,,,
1736674579155,,,,-15.900001,-35.100002,-23.94375,,,,,,,,,,,,,,,
1736674579174,,,,-16.2,-35.100002,-24.0,,,,,,,,,,,,,,,
1736674579194,,,,-16.143751,-35.5875,-23.94375,,,,,,,,,,,,,,,
1736674579214,,,,-16.25625,-35.943752,-23.75625,,,,,,,,,,,,,,,
1736674579234,,,,-16.0125,-35.7,-24.056252,,,,,,,,,,,,,,,
1736674579254,,,,-15.95625,-36.24375,-24.112501,,,,,,,,,,,,,,,
1736674579274,,,,-16.44375,-36.1875,-24.35625,,,,,,,,,,,,,,,
1736674579295,,,,-16.3125,-36.24375,-24.54375,,,,,,,,,,,,,,,
1736674579314,,,,-16.612501,-36.600002,-24.6,,,,,,,,,,,,,,,
1736674579334,,,,-16.556252,-36.54375,-24.6,,,,,,,,,,,,,,,
1736674579354,,,,-16.44375,-36.54375,-24.6,,,,,,,,,,,,,,,
1736674579374,,,,-16.85625,-36.65625,-24.712502,,,,,,,,,,,,,,,
1736674579394,,,,-16.743752,-36.600002,-24.900002,,,,,,,,,,,,,,,
1736674579414,,,,-16.743752,-36.487503,-25.143751,,,,,,,,,,,,,,,
1736674579435,,,,-16.556252,-36.54375,-24.956251,,,,,,,,,,,,,,,
1736674579454,,,,-16.5,-36.84375,-25.25625,,,,,,,,,,,,,,,
1736674579474,,,,-16.800001,-36.84375,-25.25625,,,,,,,,,,,,,,,
1736674579494,,,,-17.15625,-36.9,-25.0125,,,,,,,,,,,,,,,
1736674579514,,,,-17.5125,-36.84375,-25.0125,,,,,,,,,,,,,,,
1736674579534,,,,-17.456251,-36.487503,-24.6,,,,,,,,,,,,,,,
1736674579554,,,,-17.456251,-36.35625,-24.243752,,,,,,,,,,,,,,,
1736674579574,,,,-17.34375,-36.487503,-24.056252,,,,,,,,,,,,,,,
1736674579594,,,,-17.643751,-36.487503,-23.94375,,,,,,,,,,,,,,,
1736674579614,,,,-18.056252,-36.487503,-23.8125,,,,,,,,,,,,,,,
1736674579634,,,,-17.94375,-36.65625,-23.94375,,,,,,,,,,,,,,,
1736674579654,,,,-18.300001,-36.600002,-24.35625,,,,,,,,,,,,,,,
1736674579674,,,,-18.4125,-36.956253,-24.4125,,,,,,,,,,,,,,,
1736674579694,,,,-18.112501,-37.3875,-24.54375,,,,,,,,,,,,,,,
1736674579714,,,,-18.112501,-37.800003,-24.112501,,,,,,,,,,,,,,,
1736674579734,,,,-18.243752,-38.100002,-23.7,,,,,,,,,,,,,,,
1736674579755,,,,-17.7,-37.85625,-23.643751,,,,,,,,,,,,,,,
1736674579775,,,,-17.643751,-37.987503,-23.15625,,,,,,,,,,,,,,,
1736674579795,,,,-17.400002,-37.74375,-23.15625,,,,,,,,,,,,,,,
1736674579814,,,,-17.15625,-37.85625,-23.15625,,,,,,,,,,,,,,,
1736674579835,,,,-17.34375,-38.287502,-22.85625,,,,,,,,,,,,,,,
1736674579854,,,,-17.5125,-38.456253,-22.9125,,,,,,,,,,,,,,,
1736674579874,,,,-18.243752,-38.7,-23.04375,,,,,,,,,,,,,,,
1736674579895,,,,-18.4125,-39.0,-22.85625,,,,,,,,,,,,,,,
1736674579914,,,,-18.6,-39.24375,-22.612501,,,,,,,,,,,,,,,
1736674579935,,,,-18.54375,-39.300003,-22.25625,,,,,,,,,,,,,,,
1736674579955,,,,-18.300001,-39.487503,-22.143751,,,,,,,,,,,,,,,
1736674579974,,,,-18.243752,-39.300003,-21.65625,,,,,,,,,,,,,,,
1736674579995,,,,-18.112501,-39.54375,-21.6,,,,,,,,,,,,,,,
1736674580015,,,,-18.300001,-39.787502,-21.300001,,,,,,,,,,,,,,,
1736674580034,,,,-18.112501,-39.65625,-20.8125,,,,,,,,,,,,,,,
1736674580054,,,,-18.0,-40.256252,-20.7,,,,,,,,,,,,,,,
1736674580074,,,,-18.300001,-40.443752,-20.5125,,,,,,,,,,,,,,,
1736674580095,,,,-18.54375,-40.3875,-20.5125,,,,,,,,,,,,,,,
1736674580115,,,,-18.54375,-40.6875,-20.34375,,,,,,,,,,,,,,,
1736674580134,,,,-18.956251,-40.443752,-19.85625,,,,,,,,,,,,,,,
1736674580154,,,,-18.84375,-40.55625,-20.04375,,,,,,,,,,,,,,,
1736674580174,,,,-19.0125,-40.55625,-19.9125,,,,,,,,,,,,,,,
1736674580194,,,,-19.5,-40.6875,-19.556252,,,,,,,,,,,,,,,
1736674580214,,,,-19.25625,-40.5,-19.0125,,,,,,,,,,,,,,,
1736674580235,,,,-19.3125,-40.256252,-18.35625,,,,,,,,,,,,,,,
1736674580255,,,,-18.900002,-40.5,-18.056252,,,,,,,,,,,,,,,
1736674580275,,,,-18.6,-40.800003,-17.94375,,,,,,,,,,,,,,,
1736674580294,,,,-18.900002,-41.04375,-18.35625,,,,,,,,,,,,,,,
1736674580314,,,,-18.956251,-40.987503,-18.35625,,,,,,,,,,,,,,,
1736674580334,,,,-18.900002,-40.74375,-18.112501,,,,,,,,,,,,,,,
1736674580354,,,,-19.143751,-40.256252,-18.0,,,,,,,,,,,,,,,
1736674580374,,,,-18.712502,-40.3875,-17.643751,,,,,,,,,,,,,,,
1736674580394,,,,-19.143751,-40.74375,-17.456251,,,,,,,,,,,,,,,
1736674580414,,,,-19.143751,-40.74375,-17.456251,,,,,,,,,,,,,,,
1736674580434,,,,-18.956251,-40.74375,-17.34375,,,,,,,,,,,,,,,
1736674580454,,,,-18.84375,-40.55625,-17.212502,,,,,,,,,,,,,,,
1736674580474,,,,-18.4125,-40.3875,-17.1,,,,,,,,,,,,,,,
1736674580494,,,,-18.712502,-40.443752,-17.15625,,,,,,,,,,,,,,,
1736674580514,,,,-18.900002,-40.6875,-17.456251,,,,,,,,,,,,,,,
1736674580534,,,,-19.3125,-40.987503,-17.8125,,,,,,,,,,,,,,,
1736674580554,,,,-19.25625,-40.987503,-18.300001,,,,,,,,,,,,,,,
1736674580574,,,,-19.143751,-41.04375,-18.35625,,,,,,,,,,,,,,,
1736674580595,,,,-19.143751,-41.15625,-18.6,,,,,,,,,,,,,,,
1736674580614,,,,-18.956251,-41.15625,-18.54375,,,,,,,,,,,,,,,
1736674580634,,,,-18.900002,-41.100002,-18.243752,,,,,,,,,,,,,,,
1736674580654,,,,-18.956251,-41.34375,-18.35625,,,,,,,,,,,,,,,
1736674580674,,,,-18.900002,-41.5875,-18.54375,,,,,,,,,,,,,,,
1736674580694,,,,-18.712502,-41.643753,-18.84375,,,,,,,,,,,,,,,
1736674580715,,,,-18.65625,-42.24375,-18.712502,,,,,,,,,,,,,,,
1736674580734,,,,-18.6,-42.54375,-19.2,,,,,,,,,,,,,,,
1736674580755,,,,-18.54375,-42.54375,-19.143751,,,,,,,,,,,,,,,
1736674580774,,,,-18.65625,-42.84375,-19.143751,,,,,,,,,,,,,,,
1736674580794,,,,-19.143751,-42.84375,-19.5,,,,,,,,,,,,,,,
1736674580815,,,,-18.900002,-42.787502,-19.0125,,,,,,,,,,,,,,,
1736674580835,,,,-18.712502,-43.143753,-19.44375,,,,,,,,,,,,,,,
1736674580854,,,,-18.84375,-43.443752,-19.743752,,,,,,,,,,,,,,,
1736674580875,,,,-18.4125,-43.6875,-20.15625,,,,,,,,,,,,,,,
1736674580894,,,,-18.956251,-43.85625,-20.34375,,,,,,,,,,,,,,,
1736674580914,,,,-19.143751,-43.55625,-20.04375,,,,,,,,,,,,,,,
1736674580934,,,,-18.956251,-43.6875,-19.9125,,,,,,,,,,,,,,,
1736674580954,,,,-18.900002,-43.6875,-19.85625,,,,,,,,,,,,,,,
1736674580974,,,,-18.65625,-43.85625,-19.800001,,,,,,,,,,,,,,,
1736674580995,,,,-19.3125,-44.34375,-19.85625,,,,,,,,,,,,,,,
1736674581014,,,,-19.2,-44.643753,-19.9125,,,,,,,,,,,,,,,
1736674581034,,,,-19.5,-45.0,-19.743752,,,,,,,,,,,,,,,
1736674581054,,,,-19.25625,-44.8875,-19.9125,,,,,,,,,,,,,,,
1736674581075,,,,-18.6,-45.05625,-19.9125,,,,,,,,,,,,,,,
1736674581094,,,,-18.6,-45.05625,-19.612501,,,,,,,,,,,,,,,
1736674581114,,,,-18.35625,-45.300003,-20.1,,,,,,,,,,,,,,,
1736674581135,,,,-18.54375,-45.956253,-20.04375,,,,,,,,,,,,,,,
1736674581154,,,,-18.6,-46.143753,-20.456251,,,,,,,,,,,,,,,
1736674581174,,,,-18.6,-46.256252,-20.5125,,,,,,,,,,,,,,,
1736674581194,,,,-18.900002,-46.256252,-20.400002,,,,,,,,,,,,,,,
1736674581214,,,,-19.0125,-46.0875,-20.456251,,,,,,,,,,,,,,,
1736674581234,,,,-19.143751,-46.0875,-20.15625,,,,,,,,,,,,,,,
1736674581255,,,,-19.743752,-46.0875,-20.15625,,,,,,,,,,,,,,,
1736674581274,,,,-19.743752,-45.9,-20.1,,,,,,,,,,,,,,,
1736674581295,,,,-19.743752,-46.143753,-20.34375,,,,,,,,,,,,,,,
1736674581314,,,,-19.612501,-46.2,-20.456251,,,,,,,,,,,,,,,
1736674581334,,,,-19.2,-46.143753,-20.75625,,,,,,,,,,,,,,,
1736674581354,,,,-19.2,-46.443752,-21.0,,,,,,,,,,,,,,,
1736674581374,,,,-18.900002,-46.443752,-21.0,,,,,,,,,,,,,,,
1736674581394,,,,-18.712502,-46.800003,-21.056252,,,,,,,,,,,,,,,
1736674581414,,,,-18.4125,-47.04375,-21.0,,,,,,,,,,,,,,,
1736674581435,,,,-18.056252,-46.6875,-21.112501,,,,,,,,,,,,,,,
1736674581454,,,,-17.643751,-46.800003,-20.94375,,,,,,,,,,,,,,,
1736674581474,,,,-17.400002,-46.443752,-21.243752,,,,,,,,,,,,,,,
1736674581494,,,,-17.456251,-46.443752,-21.4125,,,,,,,,,,,,,,,
1736674579108,,,,,,,-1.171238,2.604123,9.381742,,,,,,,,,,,,
1736674579119,,,,,,,-1.150089,2.610593,9.382562,,,,,,,,,,,,
1736674579128,,,,,,,-1.151548,2.622203,9.379144,,,,,,,,,,,,
1736674579138,,,,,,,-1.155484,2.626184,9.377545,,,,,,,,,,,,
1736674579149,,,,,,,-1.156023,2.655309,9.369276,,,,,,,,,,,,
1736674579158,,,,,,,-1.15599,2.676759,9.363173,,,,,,,,,,,,
1736674579168,,,,,,,-1.163802,2.69981,9.355586,,,,,,,,,,,,
1736674579179,,,,,,,-1.171517,2.719979,9.348779,,,,,,,,,,,,
1736674579189,,,,,,,-1.16941,2.727004,9.346994,,,,,,,,,,,,
1736674579199,,,,,,,-1.174245,2.73633,9.343662,,,,,,,,,,,,
1736674579208,,,,,,,-1.165476,2.724576,9.348194,,,,,,,,,,,,
1736674579218,,,,,,,-1.157421,2.721347,9.350136,,,,,,,,,,,,
1736674579228,,,,,,,-1.154506,2.706105,9.354918,,,,,,,,,,,,
1736674579238,,,,,,,-1.150126,2.694214,9.358889,,,,,,,,,,,,
1736674579248,,,,,,,-1.149277,2.682846,9.362259,,,,,,,,,,,,
1736674579259,,,,,,,-1.144923,2.670842,9.366223,,,,,,,,,,,,
1736674579269,,,,,,,-1.141777,2.668279,9.367337,,,,,,,,,,,,
1736674579278,,,,,,,-1.140466,2.666965,9.367871,,,,,,,,,,,,
1736674579288,,,,,,,-1.129961,2.664825,9.369752,,,,,,,,,,,,
1736674579298,,,,,,,-1.121344,2.664672,9.370831,,,,,,,,,,,,
1736674579310,,,,,,,-1.106957,2.671147,9.370697,,,,,,,,,,,,
1736674579319,,,,,,,-1.093268,2.670658,9.372442,,,,,,,,,,,,
1736674579329,,,,,,,-1.069519,2.680205,9.372457,,,,,,,,,,,,
1736674579339,,,,,,,-1.051138,2.686531,9.372726,,,,,,,,,,,,
1736674579349,,,,,,,-1.024904,2.695602,9.373029,,,,,,,,,,,,
1736674579359,,,,,,,-1.009207,2.702566,9.372726,,,,,,,,,,,,
1736674579370,,,,,,,-1.000224,2.702744,9.373639,,,,,,,,,,,,
1736674579379,,,,,,,-0.987518,2.707347,9.373658,,,,,,,,,,,,
1736674579390,,,,,,,-0.990176,2.698003,9.376071,,,,,,,,,,,,
1736674579399,,,,,,,-0.990735,2.696815,9.376353,,,,,,,,,,,,
1736674579409,,,,,,,-0.980573,2.69063,9.379198,,,,,,,,,,,,
1736674579419,,,,,,,-0.973702,2.688579,9.3805,,,,,,,,,,,,
1736674579429,,,,,,,-0.948864,2.694906,9.381229,,,,,,,,,,,,
1736674579439,,,,,,,-0.927835,2.693847,9.383636,,,,,,,,,,,,
1736674579450,,,,,,,-0.901239,2.708621,9.381974,,,,,,,,,,,,
1736674579459,,,,,,,-0.881738,2.712437,9.382726,,,,,,,,,,,,
1736674579469,,,,,,,-0.861922,2.722674,9.381603,,,,,,,,,,,,
1736674579480,,,,,,,-0.839156,2.729636,9.381643,,,,,,,,,,,,
1736674579489,,,,,,,-0.829027,2.732082,9.381833,,,,,,,,,,,,
1736674579500,,,,,,,-0.823156,2.736112,9.381177,,,,,,,,,,,,
1736674579509,,,,,,,-0.813268,2.737044,9.381767,,,,,,,,,,,,
1736674579519,,,,,,,-0.804244,2.740604,9.381506,,,,,,,,,,,,
1736674579530,,,,,,,-0.799026,2.740536,9.381972,,,,,,,,,,,,
1736674579541,,,,,,,-0.791005,2.740866,9.382554,,,,,,,,,,,,
1736674579550,,,,,,,-0.776072,2.744178,9.382833,,,,,,,,,,,,
1736674579561,,,,,,,-0.769136,2.743804,9.383514,,,,,,,,,,,,
1736674579570,,,,,,,-0.755061,2.737628,9.386461,,,,,,,,,,,,
1736674579580,,,,,,,-0.744211,2.735976,9.387809,,,,,,,,,,,,
1736674579590,,,,,,,-0.736248,2.725092,9.391603,,,,,,,,,,,,
1736674579600,,,,,,,-0.728719,2.7169,9.394562,,,,,,,,,,,,
1736674579611,,,,,,,-0.721863,2.70398,9.398817,,,,,,,,,,,,
1736674579620,,,,,,,-0.71663,2.695293,9.401713,,,,,,,,,,,,
1736674579630,,,,,,,-0.703169,2.688661,9.404628,,,,,,,,,,,,
1736674579641,,,,,,,-0.689033,2.683033,9.407281,,,,,,,,,,,,
1736674579650,,,,,,,-0.670918,2.680408,9.409337,,,,,,,,,,,,
1736674579661,,,,,,,-0.655433,2.678735,9.410905,,,,,,,,,,,,
1736674579671,,,,,,,-0.64137,2.681919,9.410968,,,,,,,,,,,,
1736674579680,,,,,,,-0.62988,2.684247,9.411079,,,,,,,,,,,,
1736674579691,,,,,,,-0.622122,2.689484,9.410102,,,,,,,,,,,,
1736674579700,,,,,,,-0.618432,2.690618,9.410022,,,,,,,,,,,,
1736674579710,,,,,,,-0.618448,2.694262,9.408977,,,,,,,,,,,,
1736674579720,,,,,,,-0.620509,2.696875,9.408092,,,,,,,,,,,,
1736674579730,,,,,,,-0.618597,2.695929,9.408491,,,,,,,,,,,,
1736674579740,,,,,,,-0.615196,2.697649,9.408221,,,,,,,,,,,,
1736674579751,,,,,,,-0.613738,2.6959,9.408816,,,,,,,,,,,,
1736674579760,,,,,,,-0.610675,2.694376,9.409452,,,,,,,,,,,,
1736674579771,,,,,,,-0.605124,2.692161,9.410445,,,,,,,,,,,,
1736674579782,,,,,,,-0.60459,2.686629,9.412061,,,,,,,,,,,,
1736674579791,,,,,,,-0.604725,2.682341,9.413273,,,,,,,,,,,,
1736674579801,,,,,,,-0.596945,2.679676,9.41453,,,,,,,,,,,,
1736674579811,,,,,,,-0.596415,2.675112,9.415861,,,,,,,,,,,,
1736674579822,,,,,,,-0.600274,2.670035,9.417057,,,,,,,,,,,,
1736674579832,,,,,,,-0.600824,2.674388,9.415786,,,,,,,,,,,,
1736674579841,,,,,,,-0.599359,2.677766,9.414921,,,,,,,,,,,,
1736674579851,,,,,,,-0.603886,2.683754,9.412926,,,,,,,,,,,,
1736674579861,,,,,,,-0.605647,2.688794,9.411373,,,,,,,,,,,,
1736674579871,,,,,,,-0.600131,2.694443,9.41011,,,,,,,,,,,,
1736674579882,,,,,,,-0.603139,2.697215,9.409125,,,,,,,,,,,,
1736674579891,,,,,,,-0.597897,2.697758,9.409304,,,,,,,,,,,,
1736674579901,,,,,,,-0.594464,2.699152,9.409122,,,,,,,,,,,,
1736674579911,,,,,,,-0.595371,2.691539,9.411244,,,,,,,,,,,,
1736674579921,,,,,,,-0.592663,2.685651,9.413098,,,,,,,,,,,,
1736674579931,,,,,,,-0.584224,2.672991,9.417227,,,,,,,,,,,,
1736674579941,,,,,,,-0.583462,2.661933,9.420406,,,,,,,,,,,,
1736674579951,,,,,,,-0.583218,2.642023,9.426024,,,,,,,,,,,,
1736674579961,,,,,,,-0.572439,2.628615,9.430431,,,,,,,,,,,,
1736674579971,,,,,,,-0.567722,2.619745,9.433185,,,,,,,,,,,,
1736674579981,,,,,,,-0.564255,2.609077,9.43635,,,,,,,,,,,,
1736674579991,,,,,,,-0.554808,2.615201,9.435215,,,,,,,,,,,,
1736674580003,,,,,,,-0.551982,2.616883,9.434914,,,,,,,,,,,,
1736674580012,,,,,,,-0.544395,2.630917,9.43145,,,,,,,,,,,,
1736674580022,,,,,,,-0.538836,2.641589,9.428787,,,,,,,,,,,,
1736674580033,,,,,,,-0.530741,2.650346,9.426789,,,,,,,,,,,,
1736674580042,,,,,,,-0.528845,2.655664,9.425399,,,,,,,,,,,,
1736674580053,,,,,,,-0.521102,2.649384,9.427597,,,,,,,,,,,,
1736674580063,,,,,,,-0.505014,2.649874,9.428333,,,,,,,,,,,,
1736674580073,,,,,,,-0.488924,2.63764,9.432611,,,,,,,,,,,,
1736674580083,,,,,,,-0.478589,2.628528,9.435682,,,,,,,,,,,,
1736674580092,,,,,,,-0.457421,2.622697,9.438356,,,,,,,,,,,,
1736674580103,,,,,,,-0.443356,2.618689,9.440142,,,,,,,,,,,,
1736674580112,,,,,,,-0.428767,2.618674,9.44082,,,,,,,,,,,,
1736674580122,,,,,,,-0.412711,2.61849,9.441586,,,,,,,,,,,,
1736674580132,,,,,,,-0.399722,2.622761,9.440959,,,,,,,,,,,,
1736674580143,,,,,,,-0.391639,2.6221,9.441482,,,,,,,,,,,,
1736674580152,,,,,,,-0.377567,2.619567,9.442759,,,,,,,,,,,,
1736674580163,,,,,,,-0.365492,2.620584,9.442952,,,,,,,,,,,,
1736674580173,,,,,,,-0.358219,2.617975,9.443953,,,,,,,,,,,,
1736674580182,,,,,,,-0.349073,2.614751,9.44519,,,,,,,,,,,,
1736674580192,,,,,,,-0.343146,2.615027,9.44533,,,,,,,,,,,,
1736674580202,,,,,,,-0.338495,2.615972,9.445237,,,,,,,,,,,,
1736674580212,,,,,,,-0.332093,2.622471,9.443662,,,,,,,,,,,,
1736674580222,,,,,,,-0.329179,2.625891,9.442813,,,,,,,,,,,,
1736674580233,,,,,,,-0.320945,2.630704,9.441758,,,,,,,,,,,,
1736674580244,,,,,,,-0.317442,2.638763,9.439627,,,,,,,,,,,,
1736674580254,,,,,,,-0.307313,2.636869,9.440492,,,,,,,,,,,,
1736674580263,,,,,,,-0.298399,2.637554,9.440584,,,,,,,,,,,,
1736674580273,,,,,,,-0.28507,2.638177,9.440824,,,,,,,,,,,,
1736674580283,,,,,,,-0.270483,2.636952,9.441594,,,,,,,,,,,,
1736674580293,,,,,,,-0.262822,2.643185,9.440068,,,,,,,,,,,,
1736674580304,,,,,,,-0.254306,2.642436,9.44051,,,,,,,,,,,,
1736674580313,,,,,,,-0.243679,2.653206,9.437771,,,,,,,,,,,,
1736674580324,,,,,,,-0.237967,2.65998,9.43601,,,,,,,,,,,,
1736674580333,,,,,,,-0.231251,2.663444,9.435199,,,,,,,,,,,,
1736674580343,,,,,,,-0.225463,2.671151,9.433159,,,,,,,,,,,,
1736674580353,,,,,,,-0.223296,2.667099,9.434357,,,,,,,,,,,,
1736674580364,,,,,,,-0.220941,2.666382,9.434616,,,,,,,,,,,,
1736674580373,,,,,,,-0.225262,2.664056,9.435172,,,,,,,,,,,,
1736674580384,,,,,,,-0.2287,2.659532,9.436365,,,,,,,,,,,,
1736674580394,,,,,,,-0.234418,2.666222,9.434337,,,,,,,,,,,,
1736674580403,,,,,,,-0.23609,2.669757,9.433295,,,,,,,,,,,,
1736674580413,,,,,,,-0.239066,2.681539,9.429877,,,,,,,,,,,,
1736674580424,,,,,,,-0.241067,2.689644,9.427517,,,,,,,,,,,,
1736674580434,,,,,,,-0.239972,2.701082,9.424273,,,,,,,,,,,,
1736674580443,,,,,,,-0.239309,2.715942,9.42002,,,,,,,,,,,,
1736674580454,,,,,,,-0.228629,2.730604,9.416044,,,,,,,,,,,,
1736674580464,,,,,,,-0.225624,2.743228,9.412448,,,,,,,,,,,,
1736674580475,,,,,,,-0.20956,2.748784,9.411198,,,,,,,,,,,,
1736674580484,,,,,,,-0.19706,2.756984,9.409067,,,,,,,,,,,,
1736674580495,,,,,,,-0.177003,2.750672,9.411315,,,,,,,,,,,,
1736674580505,,,,,,,-0.165756,2.749164,9.41196,,,,,,,,,,,,
1736674580514,,,,,,,-0.145111,2.746477,9.413086,,,,,,,,,,,,
1736674580525,,,,,,,-0.122016,2.735937,9.416482,,,,,,,,,,,,
1736674580534,,,,,,,-0.122872,2.730082,9.41817,,,,,,,,,,,,
1736674580544,,,,,,,-0.119754,2.722851,9.420302,,,,,,,,,,,,
1736674580554,,,,,,,-0.115803,2.720907,9.420917,,,,,,,,,,,,
1736674580564,,,,,,,-0.11734,2.720804,9.420926,,,,,,,,,,,,
1736674580574,,,,,,,-0.126432,2.717551,9.421747,,,,,,,,,,,,
1736674580584,,,,,,,-0.130328,2.714844,9.422475,,,,,,,,,,,,
1736674580594,,,,,,,-0.149522,2.709937,9.423601,,,,,,,,,,,,
1736674580604,,,,,,,-0.161469,2.704943,9.42484,,,,,,,,,,,,
1736674580615,,,,,,,-0.177914,2.706426,9.424117,,,,,,,,,,,,
1736674580624,,,,,,,-0.190479,2.706534,9.423841,,,,,,,,,,,,
1736674580634,,,,,,,-0.206459,2.714663,9.421166,,,,,,,,,,,,
1736674580644,,,,,,,-0.21883,2.720275,9.419268,,,,,,,,,,,,
1736674580654,,,,,,,-0.232364,2.725443,9.41745,,,,,,,,,,,,
1736674580664,,,,,,,-0.243079,2.733289,9.414905,,,,,,,,,,,,
1736674580674,,,,,,,-0.245193,2.74084,9.412654,,,,,,,,,,,,
1736674580684,,,,,,,-0.255191,2.749387,9.409895,,,,,,,,,,,,
1736674580696,,,,,,,-0.244013,2.747958,9.410609,,,,,,,,,,,,
1736674580705,,,,,,,-0.237243,2.751153,9.40985,,,,,,,,,,,,
1736674580716,,,,,,,-0.226171,2.750415,9.410338,,,,,,,,,,,,
1736674580726,,,,,,,-0.212781,2.746516,9.411789,,,,,,,,,,,,
1736674580735,,,,,,,-0.196096,2.745629,9.412412,,,,,,,,,,,,
1736674580745,,,,,,,-0.184441,2.741559,9.413832,,,,,,,,,,,,
1736674580756,,,,,,,-0.176291,2.734596,9.416014,,,,,,,,,,,,
1736674580765,,,,,,,-0.170784,2.731047,9.417143,,,,,,,,,,,,
1736674580775,,,,,,,-0.165146,2.716978,9.421314,,,,,,,,,,,,
1736674580786,,,,,,,-0.160126,2.706374,9.424452,,,,,,,,,,,,
1736674580795,,,,,,,-0.167411,2.69276,9.428224,,,,,,,,,,,,
1736674580805,,,,,,,-0.166516,2.679419,9.43204,,,,,,,,,,,,
1736674580815,,,,,,,-0.180065,2.679787,9.431685,,,,,,,,,,,,
1736674580825,,,,,,,-0.185279,2.674164,9.433179,,,,,,,,,,,,
1736674580835,,,,,,,-0.197728,2.679462,9.431423,,,,,,,,,,,,
1736674580845,,,,,,,-0.210414,2.682807,9.430199,,,,,,,,,,,,
1736674580855,,,,,,,-0.217454,2.681708,9.430352,,,,,,,,,,,,
1736674580865,,,,,,,-0.225229,2.6851,9.429204,,,,,,,,,,,,
1736674580876,,,,,,,-0.232455,2.677379,9.431225,,,,,,,,,,,,
1736674580885,,,,,,,-0.238885,2.67707,9.431151,,,,,,,,,,,,
1736674580895,,,,,,,-0.2499,2.672953,9.432034,,,,,,,,,,,,
1736674580905,,,,,,,-0.257265,2.669818,9.432723,,,,,,,,,,,,
1736674580915,,,,,,,-0.264098,2.672523,9.431769,,,,,,,,,,,,
1736674580926,,,,,,,-0.269025,2.67298,9.4315,,,,,,,,,,,,
1736674580936,,,,,,,-0.265094,2.679195,9.429848,,,,,,,,,,,,
1736674580947,,,,,,,-0.265871,2.681314,9.429223,,,,,,,,,,,,
1736674580956,,,,,,,-0.254983,2.68224,9.42926,,,,,,,,,,,,
1736674580967,,,,,,,-0.251458,2.686567,9.428124,,,,,,,,,,,,
1736674580976,,,,,,,-0.242514,2.680584,9.43006,,,,,,,,,,,,
1736674580987,,,,,,,-0.233758,2.674986,9.43187,,,,,,,,,,,,
1736674580996,,,,,,,-0.233805,2.666584,9.434249,,,,,,,,,,,,
1736674581006,,,,,,,-0.230292,2.657684,9.436846,,,,,,,,,,,,
1736674581016,,,,,,,-0.230018,2.6437,9.440779,,,,,,,,,,,,
1736674581026,,,,,,,-0.226111,2.633857,9.443624,,,,,,,,,,,,
1736674581037,,,,,,,-0.22285,2.623366,9.446623,,,,,,,,,,,,
1736674581046,,,,,,,-0.225699,2.615021,9.448868,,,,,,,,,,,,
1736674581056,,,,,,,-0.226222,2.600326,9.45291,,,,,,,,,,,,
1736674581067,,,,,,,-0.222767,2.596403,9.45407,,,,,,,,,,,,
1736674581076,,,,,,,-0.228471,2.592845,9.45491,,,,,,,,,,,,
1736674581086,,,,,,,-0.232217,2.587156,9.456378,,,,,,,,,,,,
1736674581096,,,,,,,-0.226525,2.59412,9.454608,,,,,,,,,,,,
1736674581106,,,,,,,-0.223546,2.596686,9.453974,,,,,,,,,,,,
1736674581117,,,,,,,-0.216147,2.603428,9.452291,,,,,,,,,,,,
1736674581126,,,,,,,-0.210389,2.609065,9.450868,,,,,,,,,,,,
1736674581137,,,,,,,-0.20614,2.613552,9.449721,,,,,,,,,,,,
1736674581146,,,,,,,-0.20172,2.615721,9.449217,,,,,,,,,,,,
1736674581158,,,,,,,-0.199834,2.616604,9.449012,,,,,,,,,,,,
1736674581167,,,,,,,-0.199376,2.616833,9.448958,,,,,,,,,,,,
1736674581178,,,,,,,-0.198195,2.612459,9.450194,,,,,,,,,,,,
1736674581187,,,,,,,-0.198616,2.607964,9.451427,,,,,,,,,,,,
1736674581197,,,,,,,-0.201314,2.594987,9.454941,,,,,,,,,,,,
1736674581208,,,,,,,-0.202764,2.586149,9.457331,,,,,,,,,,,,
1736674581217,,,,,,,-0.214914,2.57564,9.459931,,,,,,,,,,,,
1736674581227,,,,,,,-0.2215,2.564444,9.462818,,,,,,,,,,,,
1736674581238,,,,,,,-0.226986,2.56201,9.463348,,,,,,,,,,,,
1736674581248,,,,,,,-0.234053,2.556725,9.464605,,,,,,,,,,,,
1736674581258,,,,,,,-0.249179,2.54765,9.466666,,,,,,,,,,,,
1736674581268,,,,,,,-0.260118,2.544481,9.467226,,,,,,,,,,,,
1736674581277,,,,,,,-0.25821,2.532158,9.47058,,,,,,,,,,,,
1736674581287,,,,,,,-0.26373,2.526365,9.471976,,,,,,,,,,,,
1736674581297,,,,,,,-0.255443,2.518258,9.474361,,,,,,,,,,,,
1736674581307,,,,,,,-0.246834,2.513655,9.475811,,,,,,,,,,,,
1736674581317,,,,,,,-0.238596,2.520985,9.474073,,,,,,,,,,,,
1736674581327,,,,,,,-0.232922,2.522531,9.473803,,,,,,,,,,,,
1736674581337,,,,,,,-0.239641,2.540094,9.468942,,,,,,,,,,,,
1736674581347,,,,,,,-0.242463,2.554683,9.464945,,,,,,,,,,,,
1736674581357,,,,,,,-0.237833,2.567576,9.461573,,,,,,,,,,,,
1736674581367,,,,,,,-0.242225,2.582944,9.457277,,,,,,,,,,,,
1736674581377,,,,,,,-0.264537,2.633036,9.442855,,,,,,,,,,,,
1736674581389,,,,,,,-0.272254,2.635096,9.442058,,,,,,,,,,,,
1736674581399,,,,,,,-0.272584,2.638365,9.441133,,,,,,,,,,,,
1736674581408,,,,,,,-0.286444,2.671749,9.431331,,,,,,,,,,,,
1736674581418,,,,,,,-0.270918,2.628586,9.443911,,,,,,,,,,,,
1736674581429,,,,,,,-0.255648,2.602179,9.451648,,,,,,,,,,,,
1736674581438,,,,,,,-0.263732,2.550101,9.465611,,,,,,,,,,,,
1736674581448,,,,,,,-0.254613,2.513137,9.475742,,,,,,,,,,,,
1736674581458,,,,,,,-0.266194,2.504622,9.477677,,,,,,,,,,,,
1736674581469,,,,,,,-0.281675,2.488485,9.481479,,,,,,,,,,,,
1736674581478,,,,,,,-0.267694,2.500823,9.478638,,,,,,,,,,,,
1736674579108,,,,,,,,,,0.0210375,-0.0402875,-0.028324999,,,,,,,,,
1736674579119,,,,,,,,,,8.25E-4,-0.086075,-0.045375,,,,,,,,,
1736674579128,,,,,,,,,,0.0210375,-0.1126125,-0.03795,,,,,,,,,
1736674579138,,,,,,,,,,0.0444125,-0.102025,-0.026124999,,,,,,,,,
1736674579148,,,,,,,,,,0.0540375,-0.0881375,-0.0209,,,,,,,,,
1736674579158,,,,,,,,,,0.0518375,-0.069025,-0.012375,,,,,,,,,
1736674579169,,,,,,,,,,0.0380875,-0.0402875,0.004675,,,,,,,,,
1736674579178,,,,,,,,,,0.015675,-0.0125124995,0.020624999,,,,,,,,,
1736674579188,,,,,,,,,,-0.0056375,-0.001925,0.0312125,,,,,,,,,
1736674579198,,,,,,,,,,-0.02255,-0.0050875,0.0345125,,,,,,,,,
1736674579208,,,,,,,,,,-0.02915,-0.013475,0.0292875,,,,,,,,,
1736674579218,,,,,,,,,,-0.0301125,-0.0199375,0.0198,,,,,,,,,
1736674579228,,,,,,,,,,-0.0323125,-0.0273625,0.0155375,,,,,,,,,
1736674579238,,,,,,,,,,-0.0323125,-0.0444125,0.0122375,,,,,,,,,
1736674579248,,,,,,,,,,-0.0248875,-0.063525,0.011275,,,,,,,,,
1736674579258,,,,,,,,,,-0.011,-0.0774125,0.0144375,,,,,,,,,
1736674579268,,,,,,,,,,0.00495,-0.080575,0.025024999,,,,,,,,,
1736674579279,,,,,,,,,,0.0209,-0.088,0.0378125,,,,,,,,,
1736674579288,,,,,,,,,,0.031625,-0.10395,0.0400125,,,,,,,,,
1736674579298,,,,,,,,,,0.03795,-0.1199,0.0389125,,,,,,,,,
1736674579309,,,,,,,,,,0.04015,-0.1412125,0.0400125,,,,,,,,,
1736674579319,,,,,,,,,,0.031625,-0.162525,0.043175,,,,,,,,,
1736674579329,,,,,,,,,,0.022,-0.16995,0.044275,,,,,,,,,
1736674579339,,,,,,,,,,0.0188375,-0.161425,0.0452375,,,,,,,,,
1736674579349,,,,,,,,,,0.0103124995,-0.13805,0.0389125,,,,,,,,,
1736674579359,,,,,,,,,,-0.003575,-0.10285,0.0198,,,,,,,,,
1736674579369,,,,,,,,,,-0.0121,-0.0741125,0.0059125,,,,,,,,,
1736674579379,,,,,,,,,,-0.0078375,-0.0561,0.0070125,,,,,,,,,
1736674579389,,,,,,,,,,0.012375,-0.0444125,0.0165,,,,,,,,,
1736674579400,,,,,,,,,,0.0411125,-0.0539,0.0281875,,,,,,,,,
1736674579410,,,,,,,,,,0.06985,-0.079475,0.0378125,,,,,,,,,
1736674579419,,,,,,,,,,0.094325,-0.10285,0.0367125,,,,,,,,,
1736674579430,,,,,,,,,,0.10175,-0.1315875,0.025024999,,,,,,,,,
1736674579439,,,,,,,,,,0.095425,-0.160325,0.0133375,,,,,,,,,
1736674579449,,,,,,,,,,0.077275,-0.1731125,0.0048125,,,,,,,,,
1736674579460,,,,,,,,,,0.0433125,-0.1571625,-0.0143,,,,,,,,,
1736674579469,,,,,,,,,,-4.125E-4,-0.163625,-0.0270875,,,,,,,,,
1736674579479,,,,,,,,,,-0.02805,-0.1582625,-0.021724999,,,,,,,,,
1736674579489,,,,,,,,,,-0.0429,-0.128425,-0.0132,,,,,,,,,
1736674579500,,,,,,,,,,-0.0386375,-0.1082125,-0.0089375,,,,,,,,,
1736674579509,,,,,,,,,,-0.0237875,-0.0985875,-0.007975,,,,,,,,,
1736674579519,,,,,,,,,,-0.0067375,-0.0996875,-0.004675,,,,,,,,,
1736674579529,,,,,,,,,,0.00495,-0.113575,-5.5E-4,,,,,,,,,
1736674579540,,,,,,,,,,6.875E-4,-0.1188,0.0070125,,,,,,,,,
1736674579550,,,,,,,,,,-0.013062499,-0.121,0.010175,,,,,,,,,
1736674579560,,,,,,,,,,-0.02915,-0.115637496,0.009075,,,,,,,,,
1736674579571,,,,,,,,,,-0.0451,-0.097625,0.00275,,,,,,,,,
1736674579580,,,,,,,,,,-0.0556875,-0.081675,-0.005775,,,,,,,,,
1736674579591,,,,,,,,,,-0.0620125,-0.0741125,-0.0089375,,,,,,,,,
1736674579600,,,,,,,,,,-0.0642125,-0.0677875,-0.0089375,,,,,,,,,
1736674579610,,,,,,,,,,-0.0545875,-0.0688875,-0.004675,,,,,,,,,
1736674579620,,,,,,,,,,-0.0375375,-0.078375,-0.0037125,,,,,,,,,
1736674579630,,,,,,,,,,-0.018424999,-0.1007875,-0.005775,,,,,,,,,
1736674579640,,,,,,,,,,6.875E-4,-0.1241625,-0.007975,,,,,,,,,
1736674579651,,,,,,,,,,0.013475,-0.13695,-0.0089375,,,,,,,,,
1736674579660,,,,,,,,,,0.0198,-0.13805,-0.0132,,,,,,,,,
1736674579670,,,,,,,,,,0.0231,-0.144375,-0.0165,,,,,,,,,
1736674579681,,,,,,,,,,0.0231,-0.130625,-0.0196625,,,,,,,,,
1736674579690,,,,,,,,,,0.022,-0.096525,-0.0207625,,,,,,,,,
1736674579700,,,,,,,,,,0.013475,-0.0592625,-0.022824999,,,,,,,,,
1736674579711,,,,,,,,,,0.00385,-0.0336875,-0.022824999,,,,,,,,,
1736674579720,,,,,,,,,,-0.003575,-0.0209,-0.0185625,,,,,,,,,
1736674579730,,,,,,,,,,-0.0088,-0.030524999,-0.0185625,,,,,,,,,
1736674579740,,,,,,,,,,-0.0088,-0.0496375,-0.0207625,,,,,,,,,
1736674579751,,,,,,,,,,-0.013062499,-0.0603625,-0.0196625,,,,,,,,,
1736674579760,,,,,,,,,,-0.015262499,-0.06985,-0.0185625,,,,,,,,,
1736674579772,,,,,,,,,,-0.0163625,-0.0741125,-0.022824999,,,,,,,,,
1736674579781,,,,,,,,,,-0.02915,-0.0666875,-0.0367125,,,,,,,,,
1736674579791,,,,,,,,,,-0.0408375,-0.0826375,-0.040975,,,,,,,,,
1736674579801,,,,,,,,,,-0.0418,-0.096525,-0.037675,,,,,,,,,
1736674579811,,,,,,,,,,-0.036575,-0.088,-0.0334125,,,,,,,,,
1736674579821,,,,,,,,,,-0.02915,-0.079475,-0.03135,,,,,,,,,
1736674579831,,,,,,,,,,-0.020624999,-0.078375,-0.02915,,,,,,,,,
1736674579842,,,,,,,,,,-0.0121,-0.080575,-0.0248875,,,,,,,,,
1736674579851,,,,,,,,,,-0.0078375,-0.086899996,-0.0143,,,,,,,,,
1736674579861,,,,,,,,,,-0.0099,-0.079475,0.00165,,,,,,,,,
1736674579871,,,,,,,,,,-0.011,-0.062425,0.0070125,,,,,,,,,
1736674579881,,,,,,,,,,-0.018424999,-0.0422125,0.009075,,,,,,,,,
1736674579891,,,,,,,,,,-0.0312125,-0.0242,0.009075,,,,,,,,,
1736674579901,,,,,,,,,,-0.044,-0.0209,0.007975,,,,,,,,,
1736674579911,,,,,,,,,,-0.051425,-0.0199375,0.0122375,,,,,,,,,
1736674579921,,,,,,,,,,-0.0556875,-0.029424999,0.0144375,,,,,,,,,
1736674579931,,,,,,,,,,-0.05995,-0.03795,0.0133375,,,,,,,,,
1736674579941,,,,,,,,,,-0.0790625,-0.032725,-0.005775,,,,,,,,,
1736674579951,,,,,,,,,,-0.0886875,-0.064625,-0.0132,,,,,,,,,
1736674579962,,,,,,,,,,-0.078099996,-0.097625,-0.005775,,,,,,,,,
1736674579971,,,,,,,,,,-0.0545875,-0.112475,0.00275,,,,,,,,,
1736674579981,,,,,,,,,,-0.02585,-0.1252625,0.0133375,,,,,,,,,
1736674579992,,,,,,,,,,0.0017875,-0.115637496,0.025024999,,,,,,,,,
1736674580003,,,,,,,,,,0.015675,-0.0826375,0.0314875,,,,,,,,,
1736674580012,,,,,,,,,,0.0188375,-0.0655875,0.03575,,,,,,,,,
1736674580022,,,,,,,,,,0.013475,-0.064625,0.043175,,,,,,,,,
1736674580032,,,,,,,,,,0.0028875,-0.0561,0.0495,,,,,,,,,
1736674580042,,,,,,,,,,-0.02695,-0.0358875,0.042075,,,,,,,,,
1736674580053,,,,,,,,,,-0.052525,-0.062425,0.03575,,,,,,,,,
1736674580063,,,,,,,,,,-0.061049998,-0.10285,0.0389125,,,,,,,,,
1736674580073,,,,,,,,,,-0.053625,-0.122099996,0.043175,,,,,,,,,
1736674580082,,,,,,,,,,-0.034375,-0.129525,0.044275,,,,,,,,,
1736674580093,,,,,,,,,,-0.0078375,-0.113575,0.0452375,,,,,,,,,
1736674580103,,,,,,,,,,0.012375,-0.088,0.043175,,,,,,,,,
1736674580112,,,,,,,,,,0.0166375,-0.0837375,0.0389125,,,,,,,,,
1736674580122,,,,,,,,,,0.0114124995,-0.088,0.034649998,,,,,,,,,
1736674580132,,,,,,,,,,0.00385,-0.0911625,0.0367125,,,,,,,,,
1736674580142,,,,,,,,,,-0.011,-0.0826375,0.043175,,,,,,,,,
1736674580152,,,,,,,,,,-0.017324999,-0.0677875,0.042075,,,,,,,,,
1736674580162,,,,,,,,,,-0.017324999,-0.0592625,0.03575,,,,,,,,,
1736674580172,,,,,,,,,,-0.0121,-0.0603625,0.027224999,,,,,,,,,
1736674580182,,,,,,,,,,-0.003575,-0.062425,0.027224999,,,,,,,,,
1736674580192,,,,,,,,,,0.00385,-0.0581625,0.0314875,,,,,,,,,
1736674580202,,,,,,,,,,0.012375,-0.0561,0.03355,,,,,,,,,
1736674580212,,,,,,,,,,0.0188375,-0.0539,0.0378125,,,,,,,,,
1736674580222,,,,,,,,,,0.022,-0.0411125,0.043175,,,,,,,,,
1736674580233,,,,,,,,,,0.0251625,-0.0231,0.0485375,,,,,,,,,
1736674580243,,,,,,,,,,0.031625,-0.00715,0.0495,,,,,,,,,
1736674580253,,,,,,,,,,0.0444125,-0.00495,0.0463375,,,,,,,,,
1736674580263,,,,,,,,,,0.0561,-0.015675,0.042075,,,,,,,,,
1736674580273,,,,,,,,,,0.063525,-0.032725,0.0314875,,,,,,,,,
1736674580283,,,,,,,,,,0.062425,-0.055,0.0218625,,,,,,,,,
1736674580294,,,,,,,,,,0.0528,-0.0655875,0.0187,,,,,,,,,
1736674580303,,,,,,,,,,0.039049998,-0.0592625,0.0198,,,,,,,,,
1736674580313,,,,,,,,,,0.0188375,-0.0433125,0.0229625,,,,,,,,,
1736674580324,,,,,,,,,,0.00495,-0.029424999,0.0229625,,,,,,,,,
1736674580333,,,,,,,,,,-0.0067375,-0.0242,0.0187,,,,,,,,,
1736674580343,,,,,,,,,,-0.013062499,-0.0188375,0.0144375,,,,,,,,,
1736674580353,,,,,,,,,,-0.013062499,-0.0125124995,0.007975,,,,,,,,,
1736674580363,,,,,,,,,,-0.0099,-0.0039875,-5.5E-4,,,,,,,,,
1736674580373,,,,,,,,,,-0.0067375,0.0067375,-0.004675,,,,,,,,,
1736674580383,,,,,,,,,,-0.003575,0.0099,-0.0037125,,,,,,,,,
1736674580394,,,,,,,,,,0.00385,0.0045375,-0.0015125,,,,,,,,,
1736674580403,,,,,,,,,,0.0114124995,-0.0103124995,0.0059125,,,,,,,,,
1736674580413,,,,,,,,,,0.0177375,-0.0242,0.0144375,,,,,,,,,
1736674580423,,,,,,,,,,0.030524999,-0.032725,0.023924999,,,,,,,,,
1736674580433,,,,,,,,,,0.0496375,-0.030524999,0.0281875,,,,,,,,,
1736674580444,,,,,,,,,,0.0677875,-0.0242,0.0314875,,,,,,,,,
1736674580454,,,,,,,,,,0.077275,-0.0209,0.0378125,,,,,,,,,
1736674580464,,,,,,,,,,0.079475,-0.0231,0.0400125,,,,,,,,,
1736674580474,,,,,,,,,,0.079475,-0.0262625,0.0389125,,,,,,,,,
1736674580485,,,,,,,,,,0.0688875,-0.0242,0.0367125,,,,,,,,,
1736674580494,,,,,,,,,,0.0603625,-0.014575,0.03355,,,,,,,,,
1736674580504,,,,,,,,,,0.0496375,-0.00825,0.0122375,,,,,,,,,
1736674580514,,,,,,,,,,0.0166375,0.0099,-0.0270875,,,,,,,,,
1736674580525,,,,,,,,,,-0.0215875,-0.014575,-0.0484,,,,,,,,,
1736674580534,,,,,,,,,,-0.0429,-0.047575,-0.0430375,,,,,,,,,
1736674580544,,,,,,,,,,-0.0482625,-0.0496375,-0.0334125,,,,,,,,,
1736674580554,,,,,,,,,,-0.0386375,-0.032725,-0.0270875,,,,,,,,,
1736674580565,,,,,,,,,,-0.02585,0.003575,-0.03135,,,,,,,,,
1736674580574,,,,,,,,,,-0.0237875,0.034375,-0.0441375,,,,,,,,,
1736674580584,,,,,,,,,,-0.02915,0.0449625,-0.0515625,,,,,,,,,
1736674580594,,,,,,,,,,-0.035475,0.0397375,-0.0515625,,,,,,,,,
1736674580604,,,,,,,,,,-0.033275,0.0204875,-0.0526625,,,,,,,,,
1736674580615,,,,,,,,,,-0.0248875,-6.875E-4,-0.0495,,,,,,,,,
1736674580624,,,,,,,,,,-0.015262499,-0.0114124995,-0.0430375,,,,,,,,,
1736674580634,,,,,,,,,,-0.0078375,-0.013475,-0.03135,,,,,,,,,
1736674580645,,,,,,,,,,0.0017875,-0.015675,-0.0185625,,,,,,,,,
1736674580654,,,,,,,,,,0.0081124995,-0.013475,-0.0089375,,,,,,,,,
1736674580665,,,,,,,,,,0.0188375,0.001375,0.00275,,,,,,,,,
1736674580675,,,,,,,,,,0.030524999,0.016224999,0.0165,,,,,,,,,
1736674580684,,,,,,,,,,0.03795,0.0204875,0.0218625,,,,,,,,,
1736674580695,,,,,,,,,,0.0422125,0.0099,0.0176,,,,,,,,,
1736674580705,,,,,,,,,,0.03795,-0.0039875,0.007975,,,,,,,,,
1736674580715,,,,,,,,,,0.0231,-0.0188375,5.5E-4,,,,,,,,,
1736674580726,,,,,,,,,,0.00605,-0.029424999,-0.0015125,,,,,,,,,
1736674580736,,,,,,,,,,-0.0056375,-0.032725,-0.005775,,,,,,,,,
1736674580745,,,,,,,,,,-0.0163625,-0.0262625,-0.0111375,,,,,,,,,
1736674580755,,,,,,,,,,-0.0226875,-0.0039875,-0.0165,,,,,,,,,
1736674580765,,,,,,,,,,-0.02915,0.0237875,-0.022824999,,,,,,,,,
1736674580776,,,,,,,,,,-0.0375375,0.035475,-0.03025,,,,,,,,,
1736674580785,,,,,,,,,,-0.044,0.035475,-0.0419375,,,,,,,,,
1736674580795,,,,,,,,,,-0.0482625,0.02805,-0.0537625,,,,,,,,,
1736674580806,,,,,,,,,,-0.051425,0.018424999,-0.0600875,,,,,,,,,
1736674580815,,,,,,,,,,-0.0556875,0.0045375,-0.06325,,,,,,,,,
1736674580826,,,,,,,,,,-0.0631125,-0.00825,-0.0589875,,,,,,,,,
1736674580836,,,,,,,,,,-0.069575,-0.016775,-0.0462,,,,,,,,,
1736674580845,,,,,,,,,,-0.0705375,-0.0199375,-0.0334125,,,,,,,,,
1736674580855,,,,,,,,,,-0.0653125,-0.015675,-0.023924999,,,,,,,,,
1736674580866,,,,,,,,,,-0.052525,-0.0039875,-0.0185625,,,,,,,,,
1736674580875,,,,,,,,,,-0.034375,0.0088,-0.0174625,,,,,,,,,
1736674580885,,,,,,,,,,-0.015262499,0.013062499,-0.0174625,,,,,,,,,
1736674580895,,,,,,,,,,6.875E-4,0.015262499,-0.0143,,,,,,,,,
1736674580905,,,,,,,,,,0.0114124995,0.0088,-0.006875,,,,,,,,,
1736674580916,,,,,,,,,,0.013475,-0.00605,5.5E-4,,,,,,,,,
1736674580926,,,,,,,,,,0.0103124995,-0.0251625,0.009075,,,,,,,,,
1736674580937,,,,,,,,,,0.00385,-0.032725,0.0155375,,,,,,,,,
1736674580946,,,,,,,,,,-0.003575,-0.0242,0.0196625,,,,,,,,,
1736674580956,,,,,,,,,,-0.0088,-0.0039875,0.0207625,,,,,,,,,
1736674580966,,,,,,,,,,-0.014162499,0.015262499,0.0176,,,,,,,,,
1736674580976,,,,,,,,,,-0.0248875,0.02585,0.007975,,,,,,,,,
1736674580986,,,,,,,,,,-0.0418,0.0290125,0.00165,,,,,,,,,
1736674580997,,,,,,,,,,-0.0556875,0.02585,-5.5E-4,,,,,,,,,
1736674581006,,,,,,,,,,-0.0705375,0.015262499,5.5E-4,,,,,,,,,
1736674581016,,,,,,,,,,-0.082225,-0.0017875,5.5E-4,,,,,,,,,
1736674581026,,,,,,,,,,-0.0875875,-0.0114124995,5.5E-4,,,,,,,,,
1736674581036,,,,,,,,,,-0.082225,-0.00605,0.0059125,,,,,,,,,
1736674581047,,,,,,,,,,-0.058849998,0.017324999,0.007975,,,,,,,,,
1736674581057,,,,,,,,,,-0.0237875,0.02695,-0.0015125,,,,,,,,,
1736674581066,,,,,,,,,,0.0092124995,0.0204875,-0.0100375,,,,,,,,,
1736674581077,,,,,,,,,,0.029424999,0.013062499,-0.007975,,,,,,,,,
1736674581086,,,,,,,,,,0.0433125,-0.0039875,-0.0037125,,,,,,,,,
1736674581096,,,,,,,,,,0.047575,-0.0199375,-0.0015125,,,,,,,,,
1736674581106,,,,,,,,,,0.046475,-0.0262625,-0.0015125,,,,,,,,,
1736674581116,,,,,,,,,,0.04015,-0.0209,-0.0015125,,,,,,,,,
1736674581126,,,,,,,,,,0.0336875,-0.0114124995,-0.0026125,,,,,,,,,
1736674581137,,,,,,,,,,0.0231,-0.0092124995,-0.0026125,,,,,,,,,
1736674581146,,,,,,,,,,0.0114124995,-0.0114124995,-0.006875,,,,,,,,,
1736674581157,,,,,,,,,,-0.002475,-0.0125124995,-0.006875,,,,,,,,,
1736674581168,,,,,,,,,,-0.018424999,-0.0103124995,-0.0100375,,,,,,,,,
1736674581177,,,,,,,,,,-0.033275,2.75E-4,-0.0143,,,,,,,,,
1736674581187,,,,,,,,,,-0.0451,0.019524999,-0.0165,,,,,,,,,
1736674581197,,,,,,,,,,-0.051425,0.0290125,-0.021724999,,,,,,,,,
1736674581207,,,,,,,,,,-0.052525,0.0215875,-0.0270875,,,,,,,,,
1736674581217,,,,,,,,,,-0.0512875,0.011825,-0.030524999,,,,,,,,,
1736674581227,,,,,,,,,,-0.048125,0.0066,-0.028324999,,,,,,,,,
1736674581237,,,,,,,,,,-0.048125,0.0012375,-0.0240625,,,,,,,,,
1736674581247,,,,,,,,,,-0.050325,0.0012375,-0.0198,,,,,,,,,
1736674581257,,,,,,,,,,-0.0545875,0.0086624995,-0.012375,,,,,,,,,
1736674581267,,,,,,,,,,-0.047025,0.0182875,-6.875E-4,,,,,,,,,
1736674581277,,,,,,,,,,-0.0301125,0.0171875,0.003575,,,,,,,,,
1736674581288,,,,,,,,,,-0.0066,-8.25E-4,-0.00275,,,,,,,,,
1736674581297,,,,,,,,,,0.0221375,-0.0243375,-0.010175,,,,,,,,,
1736674581308,,,,,,,,,,0.049775,-0.0402875,-0.0187,,,,,,,,,
1736674581317,,,,,,,,,,0.07315,-0.0413875,-0.0251625,,,,,,,,,
1736674581328,,,,,,,,,,0.0891,-0.0264,-0.029424999,,,,,,,,,
1736674581338,,,,,,,,,,0.097625,-0.004125,-0.0229625,,,,,,,,,
1736674581348,,,,,,,,,,0.1018875,0.0077,-0.012375,,,,,,,,,
1736674581357,,,,,,,,,,0.1029875,0.0044,-0.0017875,,,,,,,,,
1736674581367,,,,,,,,,,0.10615,0.0086624995,0.0015125,,,,,,,,,
1736674581378,,,,,,,,,,0.07425,0.0746625,0.0100375,,,,,,,,,
1736674581388,,,,,,,,,,-0.0204875,0.15455,0.037675,,,,,,,,,
1736674581399,,,,,,,,,,-0.13859999,0.175725,0.0408375,,,,,,,,,
1736674581408,,,,,,,,,,-0.18975,0.0853875,0.0121,,,,,,,,,
1736674581419,,,,,,,,,,-0.1758625,0.028875,-0.030524999,,,,,,,,,
1736674581428,,,,,,,,,,-0.144925,0.0268125,-0.0517,,,,,,,,,
1736674581438,,,,,,,,,,-0.095975,-0.01045,-0.062425,,,,,,,,,
1736674581449,,,,,,,,,,-0.0427625,-0.069025,-0.0592625,,,,,,,,,
1736674581459,,,,,,,,,,8.25E-4,-0.0966625,-0.0262625,,,,,,,,,
1736674581468,,,,,,,,,,0.0444125,-0.0903375,4.125E-4,,,,,,,,,
1736674581478,,,,,,,,,,0.091299996,-0.0785125,0.003575,,,,,,,,,
1736674579118,,,,,,,,,,,,,-0.225557,0.323979,0.656433,,,,,,
1736674579128,,,,,,,,,,,,,-0.262406,0.22857,0.791537,,,,,,
1736674579139,,,,,,,,,,,,,-0.153121,0.416131,0.328643,,,,,,
1736674579149,,,,,,,,,,,,,-0.1454,0.367852,0.497329,,,,,,
1736674579158,,,,,,,,,,,,,-0.171769,0.305699,0.168232,,,,,,
1736674579168,,,,,,,,,,,,,-0.15438,0.316168,0.242859,,,,,,
1736674579178,,,,,,,,,,,,,-0.036528,0.202622,0.371775,,,,,,
1736674579188,,,,,,,,,,,,,-0.110464,0.214751,0.232296,,,,,,
1736674579199,,,,,,,,,,,,,0.018873,0.033037,0.551675,,,,,,
1736674579209,,,,,,,,,,,,,0.010104,0.130985,0.487286,,,,,,
1736674579218,,,,,,,,,,,,,-0.074567,0.019288,0.640973,,,,,,
1736674579228,,,,,,,,,,,,,-0.065511,0.039319,0.552391,,,,,,
1736674579238,,,,,,,,,,,,,-0.163268,0.106278,0.797426,,,,,,
1736674579248,,,,,,,,,,,,,-0.125809,0.057789,0.724621,,,,,,
1736674579258,,,,,,,,,,,,,-0.163682,0.189507,0.816429,,,,,,
1736674579268,,,,,,,,,,,,,-0.197954,0.180099,0.798554,,,,,,
1736674579279,,,,,,,,,,,,,-0.093917,0.140711,0.759712,,,,,,
1736674579288,,,,,,,,,,,,,-0.140336,0.169188,0.788957,,,,,,
1736674579299,,,,,,,,,,,,,-0.072335,0.20286,0.605913,,,,,,
1736674579309,,,,,,,,,,,,,-0.117849,0.153288,0.720972,,,,,,
1736674579320,,,,,,,,,,,,,0.019302,0.239972,0.522895,,,,,,
1736674579329,,,,,,,,,,,,,-0.037967,0.208876,0.542035,,,,,,
1736674579340,,,,,,,,,,,,,0.106463,0.20255,0.369377,,,,,,
1736674579350,,,,,,,,,,,,,0.015583,0.224605,0.460057,,,,,,
1736674579359,,,,,,,,,,,,,-0.033633,0.16736,0.525005,,,,,,
1736674579369,,,,,,,,,,,,,0.043577,0.186337,0.413955,,,,,,
1736674579379,,,,,,,,,,,,,-0.17743,0.097934,0.837725,,,,,,
1736674579389,,,,,,,,,,,,,-0.15083,0.126432,0.682078,,,,,,
1736674579399,,,,,,,,,,,,,-0.06647,0.072552,0.882916,,,,,,
1736674579409,,,,,,,,,,,,,-0.138884,0.105074,0.904013,,,,,,
1736674579420,,,,,,,,,,,,,0.081702,0.138251,0.660889,,,,,,
1736674579429,,,,,,,,,,,,,-0.005388,0.088826,0.799028,,,,,,
1736674579439,,,,,,,,,,,,,0.090903,0.185657,0.317764,,,,,,
1736674579449,,,,,,,,,,,,,0.014027,0.14694,0.520545,,,,,,
1736674579459,,,,,,,,,,,,,0.032834,0.219742,0.289942,,,,,,
1736674579470,,,,,,,,,,,,,0.07527,0.204716,0.274305,,,,,,
1736674579479,,,,,,,,,,,,,-0.06242,0.221697,0.458625,,,,,,
1736674579489,,,,,,,,,,,,,-0.079733,0.195307,0.317173,,,,,,
1736674579499,,,,,,,,,,,,,-0.044901,0.224798,0.621903,,,,,,
1736674579509,,,,,,,,,,,,,-0.054788,0.228654,0.587793,,,,,,
1736674579519,,,,,,,,,,,,,-0.111698,0.146083,0.51862,,,,,,
1736674579529,,,,,,,,,,,,,-0.092973,0.17967,0.601953,,,,,,
1736674579540,,,,,,,,,,,,,0.004353,0.17934,0.414617,,,,,,
1736674579551,,,,,,,,,,,,,-0.089591,0.164057,0.452648,,,,,,
1736674579561,,,,,,,,,,,,,0.023187,0.104574,0.451966,,,,,,
1736674579570,,,,,,,,,,,,,0.006718,0.168213,0.415498,,,,,,
1736674579581,,,,,,,,,,,,,-0.028074,0.098037,0.567385,,,,,,
1736674579591,,,,,,,,,,,,,-0.021671,0.118498,0.506129,,,,,,
1736674579600,,,,,,,,,,,,,-0.053143,0.124295,0.797667,,,,,,
1736674579611,,,,,,,,,,,,,-0.076759,0.127638,0.683275,,,,,,
1736674579620,,,,,,,,,,,,,-0.007769,0.165057,0.812064,,,,,,
1736674579631,,,,,,,,,,,,,-0.026019,0.157323,0.823515,,,,,,
1736674579640,,,,,,,,,,,,,0.022095,0.131825,0.648473,,,,,,
1736674579650,,,,,,,,,,,,,-0.017567,0.170365,0.766132,,,,,,
1736674579660,,,,,,,,,,,,,-0.02108,0.1457,0.46049,,,,,,
1736674579670,,,,,,,,,,,,,-0.042326,0.166459,0.570564,,,,,,
1736674579680,,,,,,,,,,,,,-0.032268,0.137794,0.331024,,,,,,
1736674579690,,,,,,,,,,,,,-0.040026,0.10622,0.370309,,,,,,
1736674579700,,,,,,,,,,,,,-0.058082,0.15776,0.391938,,,,,,
1736674579711,,,,,,,,,,,,,-0.065248,0.134961,0.328337,,,,,,
1736674579720,,,,,,,,,,,,,-0.041639,0.156292,0.544708,,,,,,
1736674579730,,,,,,,,,,,,,-0.041157,0.173997,0.482057,,,,,,
1736674579740,,,,,,,,,,,,,-0.082867,0.157912,0.566127,,,,,,
1736674579750,,,,,,,,,,,,,-0.074747,0.16445,0.570321,,,,,,
1736674579760,,,,,,,,,,,,,-0.04429,0.144425,0.528982,,,,,,
1736674579772,,,,,,,,,,,,,-0.097727,0.139457,0.604606,,,,,,
1736674579781,,,,,,,,,,,,,-0.124598,0.17372,0.612567,,,,,,
1736674579792,,,,,,,,,,,,,-0.040663,0.182797,0.570652,,,,,,
1736674579801,,,,,,,,,,,,,-0.120271,0.147154,0.55503,,,,,,
1736674579811,,,,,,,,,,,,,-0.166293,0.134958,0.568064,,,,,,
1736674579821,,,,,,,,,,,,,-0.12652,0.247778,0.56208,,,,,,
1736674579831,,,,,,,,,,,,,-0.106815,0.231453,0.589689,,,,,,
1736674579841,,,,,,,,,,,,,-0.177715,0.204133,0.391828,,,,,,
1736674579851,,,,,,,,,,,,,-0.149245,0.226876,0.508749,,,,,,
1736674579861,,,,,,,,,,,,,-0.02777,0.173949,0.304392,,,,,,
1736674579871,,,,,,,,,,,,,-0.112297,0.163513,0.360724,,,,,,
1736674579881,,,,,,,,,,,,,0.005636,0.165529,0.421566,,,,,,
1736674579892,,,,,,,,,,,,,-0.006788,0.164986,0.325616,,,,,,
1736674579901,,,,,,,,,,,,,-0.077261,0.139649,0.617901,,,,,,
1736674579911,,,,,,,,,,,,,-0.038046,0.137684,0.515218,,,,,,
1736674579921,,,,,,,,,,,,,0.019103,0.078927,0.613925,,,,,,
1736674579932,,,,,,,,,,,,,-0.068347,0.144261,0.676836,,,,,,
1736674579941,,,,,,,,,,,,,-0.119389,0.081096,0.838863,,,,,,
1736674579951,,,,,,,,,,,,,-0.021467,0.120161,0.720713,,,,,,
1736674579961,,,,,,,,,,,,,-0.128018,0.191032,0.864751,,,,,,
1736674579972,,,,,,,,,,,,,-0.161466,0.128073,0.864393,,,,,,
1736674579981,,,,,,,,,,,,,-0.061979,0.236907,0.573913,,,,,,
1736674579991,,,,,,,,,,,,,-0.116917,0.20684,0.740254,,,,,,
1736674580002,,,,,,,,,,,,,-0.026366,0.300929,0.505915,,,,,,
1736674580012,,,,,,,,,,,,,-0.053107,0.270135,0.528533,,,,,,
1736674580023,,,,,,,,,,,,,-0.003598,0.206789,0.354019,,,,,,
1736674580032,,,,,,,,,,,,,-0.059578,0.231552,0.461365,,,,,,
1736674580042,,,,,,,,,,,,,-0.02556,0.166377,0.663875,,,,,,
1736674580052,,,,,,,,,,,,,0.038524,0.21336,0.477317,,,,,,
1736674580062,,,,,,,,,,,,,0.008071,0.090761,0.680095,,,,,,
1736674580073,,,,,,,,,,,,,-0.072663,0.110178,0.685395,,,,,,
1736674580082,,,,,,,,,,,,,0.086995,0.08577,0.567398,,,,,,
1736674580092,,,,,,,,,,,,,0.027518,0.105967,0.643735,,,,,,
1736674580103,,,,,,,,,,,,,0.049368,0.095609,0.431253,,,,,,
1736674580112,,,,,,,,,,,,,0.061115,0.124355,0.519163,,,,,,
1736674580122,,,,,,,,,,,,,0.028299,0.126934,0.283757,,,,,,
1736674580132,,,,,,,,,,,,,-0.025391,0.101114,0.353818,,,,,,
1736674580142,,,,,,,,,,,,,0.067084,0.068255,0.298227,,,,,,
1736674580152,,,,,,,,,,,,,0.055407,0.109097,0.277795,,,,,,
1736674580162,,,,,,,,,,,,,-0.004553,0.088926,0.394922,,,,,,
1736674580173,,,,,,,,,,,,,0.016904,0.065197,0.377161,,,,,,
1736674580182,,,,,,,,,,,,,-0.020972,0.118702,0.438176,,,,,,
1736674580192,,,,,,,,,,,,,-0.034082,0.113636,0.426065,,,,,,
1736674580203,,,,,,,,,,,,,-0.010001,0.162972,0.371088,,,,,,
1736674580212,,,,,,,,,,,,,-0.040347,0.130135,0.410972,,,,,,
1736674580222,,,,,,,,,,,,,0.045327,0.12911,0.359147,,,,,,
1736674580233,,,,,,,,,,,,,0.005968,0.162606,0.353019,,,,,,
1736674580243,,,,,,,,,,,,,0.088659,0.044409,0.455711,,,,,,
1736674580253,,,,,,,,,,,,,0.064164,0.053486,0.416537,,,,,,
1736674580263,,,,,,,,,,,,,0.103136,0.031253,0.370953,,,,,,
1736674580274,,,,,,,,,,,,,0.094596,0.035418,0.468879,,,,,,
1736674580284,,,,,,,,,,,,,0.00818,0.04622,0.11136,,,,,,
1736674580293,,,,,,,,,,,,,0.022067,0.01365,0.256543,,,,,,
1736674580303,,,,,,,,,,,,,0.066226,0.150873,0.131599,,,,,,
1736674580314,,,,,,,,,,,,,0.024473,0.106583,0.096029,,,,,,
1736674580323,,,,,,,,,,,,,0.040309,0.128541,0.270178,,,,,,
1736674580334,,,,,,,,,,,,,0.038382,0.163386,0.172823,,,,,,
1736674580344,,,,,,,,,,,,,0.001468,0.059907,0.342464,,,,,,
1736674580353,,,,,,,,,,,,,0.016062,0.099873,0.343661,,,,,,
1736674580364,,,,,,,,,,,,,-0.053333,0.098196,0.424807,,,,,,
1736674580373,,,,,,,,,,,,,-0.03704,0.04306,0.345239,,,,,,
1736674580384,,,,,,,,,,,,,-0.079093,0.24152,0.554743,,,,,,
1736674580393,,,,,,,,,,,,,-0.047038,0.172579,0.494521,,,,,,
1736674580404,,,,,,,,,,,,,-0.083675,0.281575,0.51711,,,,,,
1736674580413,,,,,,,,,,,,,-0.085487,0.226696,0.551654,,,,,,
1736674580424,,,,,,,,,,,,,-0.042783,0.211408,0.429512,,,,,,
1736674580433,,,,,,,,,,,,,-0.043879,0.255039,0.497401,,,,,,
1736674580443,,,,,,,,,,,,,0.084749,0.177927,0.288562,,,,,,
1736674580454,,,,,,,,,,,,,-0.012124,0.168055,0.350002,,,,,,
1736674580465,,,,,,,,,,,,,0.145287,0.014167,0.140506,,,,,,
1736674580474,,,,,,,,,,,,,0.10528,0.085228,0.220767,,,,,,
1736674580484,,,,,,,,,,,,,0.207706,-0.136062,0.062481,,,,,,
1736674580494,,,,,,,,,,,,,0.118215,-0.057922,0.074599,,,,,,
1736674580504,,,,,,,,,,,,,0.260202,-0.073174,-0.064913,,,,,,
1736674580515,,,,,,,,,,,,,0.268288,-0.125555,-0.063645,,,,,,
1736674580525,,,,,,,,,,,,,-0.049303,-0.009667,0.043095,,,,,,
1736674580534,,,,,,,,,,,,,-0.007744,-0.027754,0.019858,,,,,,
1736674580544,,,,,,,,,,,,,0.017868,0.046515,0.084766,,,,,,
1736674580554,,,,,,,,,,,,,-0.005236,0.053248,0.079363,,,,,,
1736674580564,,,,,,,,,,,,,-0.056373,0.019831,0.11048,,,,,,
1736674580575,,,,,,,,,,,,,0.019758,0.018296,0.059378,,,,,,
1736674580584,,,,,,,,,,,,,-0.175071,0.08086,0.345965,,,,,,
1736674580595,,,,,,,,,,,,,-0.105597,0.035487,0.201182,,,,,,
1736674580605,,,,,,,,,,,,,-0.19421,0.181743,0.448948,,,,,,
1736674580614,,,,,,,,,,,,,-0.161006,0.146741,0.432911,,,,,,
1736674580624,,,,,,,,,,,,,-0.208297,0.225644,0.370936,,,,,,
1736674580635,,,,,,,,,,,,,-0.173163,0.195966,0.423891,,,,,,
1736674580644,,,,,,,,,,,,,-0.182341,0.137681,0.272555,,,,,,
1736674580654,,,,,,,,,,,,,-0.137681,0.173215,0.319864,,,,,,
1736674580664,,,,,,,,,,,,,-0.019223,0.131849,0.245792,,,,,,
1736674580674,,,,,,,,,,,,,-0.110486,0.131481,0.228889,,,,,,
1736674580684,,,,,,,,,,,,,0.134151,-0.023116,0.164608,,,,,,
1736674580695,,,,,,,,,,,,,0.067904,0.064506,0.24051,,,,,,
1736674580705,,,,,,,,,,,,,0.10902,-0.044036,-0.022101,,,,,,
1736674580715,,,,,,,,,,,,,0.124285,-0.043298,0.049239,,,,,,
1736674580725,,,,,,,,,,,,,0.161175,-0.013062,-0.026434,,,,,,
1736674580735,,,,,,,,,,,,,0.11097,-0.03133,0.004068,,,,,,
1736674580745,,,,,,,,,,,,,0.096921,-0.07754,-0.057209,,,,,,
1736674580755,,,,,,,,,,,,,0.098349,-0.02748,-0.059391,,,,,,
1736674580766,,,,,,,,,,,,,0.11439,-0.112519,0.073559,,,,,,
1736674580775,,,,,,,,,,,,,0.111146,-0.079297,0.007137,,,,,,
1736674580785,,,,,,,,,,,,,-0.039924,-0.071087,0.152445,,,,,,
1736674580796,,,,,,,,,,,,,0.048765,-0.079021,0.098393,,,,,,
1736674580805,,,,,,,,,,,,,-0.138883,0.116285,0.147251,,,,,,
1736674580816,,,,,,,,,,,,,-0.0559,0.05606,0.176337,,,,,,
1736674580825,,,,,,,,,,,,,-0.158428,0.214917,0.208364,,,,,,
1736674580835,,,,,,,,,,,,,-0.167528,0.178493,0.167022,,,,,,
1736674580845,,,,,,,,,,,,,-0.099774,0.129657,0.220921,,,,,,
1736674580855,,,,,,,,,,,,,-0.097522,0.171458,0.218374,,,,,,
1736674580866,,,,,,,,,,,,,-0.077776,0.02441,0.286561,,,,,,
1736674580875,,,,,,,,,,,,,-0.063367,0.089594,0.260598,,,,,,
1736674580885,,,,,,,,,,,,,-0.1144,0.003708,0.19842,,,,,,
1736674580895,,,,,,,,,,,,,-0.081837,0.012613,0.233451,,,,,,
1736674580906,,,,,,,,,,,,,-0.091231,0.051663,0.115443,,,,,,
1736674580915,,,,,,,,,,,,,-0.093975,0.036987,0.152311,,,,,,
1736674580927,,,,,,,,,,,,,0.006722,0.050895,-0.077271,,,,,,
1736674580936,,,,,,,,,,,,,-0.0427,0.035103,0.015363,,,,,,
1736674580946,,,,,,,,,,,,,0.118493,-0.017295,-0.132456,,,,,,
1736674580957,,,,,,,,,,,,,0.054931,0.032058,-0.132493,,,,,,
1736674580966,,,,,,,,,,,,,0.132812,-0.091982,-0.16009,,,,,,
1736674580976,,,,,,,,,,,,,0.13584,-0.066845,-0.159631,,,,,,
1736674580986,,,,,,,,,,,,,0.028918,-0.046881,-0.024966,,,,,,
1736674580996,,,,,,,,,,,,,0.060091,-0.062422,-0.120722,,,,,,
1736674581006,,,,,,,,,,,,,-8.84E-4,-0.051128,0.099349,,,,,,
1736674581016,,,,,,,,,,,,,0.032361,-0.010807,0.033164,,,,,,
1736674581026,,,,,,,,,,,,,0.023665,0.046921,0.296085,,,,,,
1736674581036,,,,,,,,,,,,,-0.020298,0.007132,0.154217,,,,,,
1736674581046,,,,,,,,,,,,,0.016071,-0.046773,0.420132,,,,,,
1736674581057,,,,,,,,,,,,,0.059691,0.046931,0.39933,,,,,,
1736674581066,,,,,,,,,,,,,-0.056295,-0.013789,0.244935,,,,,,
1736674581076,,,,,,,,,,,,,-0.055379,-0.038964,0.318318,,,,,,
1736674581086,,,,,,,,,,,,,0.044137,0.040947,0.036719,,,,,,
1736674581096,,,,,,,,,,,,,0.002531,0.022012,0.165386,,,,,,
1736674581106,,,,,,,,,,,,,0.066592,-0.011678,-0.173968,,,,,,
1736674581116,,,,,,,,,,,,,0.056799,0.007915,-0.081302,,,,,,
1736674581126,,,,,,,,,,,,,0.043858,-0.028846,-0.206776,,,,,,
1736674581137,,,,,,,,,,,,,0.044397,-0.038122,-0.186475,,,,,,
1736674581146,,,,,,,,,,,,,0.016034,-0.064234,-0.281742,,,,,,
1736674581157,,,,,,,,,,,,,0.002177,-0.043568,-0.245623,,,,,,
1736674581168,,,,,,,,,,,,,0.023267,-0.082106,-0.243175,,,,,,
1736674581177,,,,,,,,,,,,,0.026875,-0.080126,-0.280325,,,,,,
1736674581188,,,,,,,,,,,,,0.008142,-0.106757,-0.02058,,,,,,
1736674581197,,,,,,,,,,,,,0.018022,-0.084203,-0.134232,,,,,,
1736674581207,,,,,,,,,,,,,-0.121789,-0.049027,0.076469,,,,,,
1736674581217,,,,,,,,,,,,,-0.061754,-0.072038,0.037954,,,,,,
1736674581227,,,,,,,,,,,,,-0.057562,0.044505,0.061405,,,,,,
1736674581237,,,,,,,,,,,,,-0.078414,0.020602,0.096789,,,,,,
1736674581248,,,,,,,,,,,,,-0.169512,-0.007632,0.1506,,,,,,
1736674581257,,,,,,,,,,,,,-0.108895,0.025385,0.031219,,,,,,
1736674581267,,,,,,,,,,,,,0.031335,-0.012147,0.41614,,,,,,
1736674581277,,,,,,,,,,,,,-0.073526,0.007357,0.273917,,,,,,
1736674581287,,,,,,,,,,,,,0.066073,-0.03234,0.375475,,,,,,
1736674581298,,,,,,,,,,,,,0.052997,-0.002685,0.447313,,,,,,
1736674581307,,,,,,,,,,,,,0.056359,0.02586,0.077143,,,,,,
1736674581318,,,,,,,,,,,,,0.040939,-0.019778,0.256058,,,,,,
1736674581327,,,,,,,,,,,,,-0.074872,0.086418,-0.069293,,,,,,
1736674581337,,,,,,,,,,,,,-0.020267,0.052095,-0.038095,,,,,,
1736674581347,,,,,,,,,,,,,0.059172,0.042295,0.011392,,,,,,
1736674581358,,,,,,,,,,,,,-0.041229,0.053345,-0.04988,,,,,,
1736674581367,,,,,,,,,,,,,-0.123032,0.076286,-1.434272,,,,,,
1736674581378,,,,,,,,,,,,,0.078851,-0.09352,-0.500443,,,,,,
1736674581388,,,,,,,,,,,,,0.184734,-0.02854,-0.774989,,,,,,
1736674581399,,,,,,,,,,,,,-0.016055,0.075933,-1.671923,,,,,,
1736674581408,,,,,,,,,,,,,0.220472,-0.230399,0.413726,,,,,,
1736674581418,,,,,,,,,,,,,0.224101,-0.163293,-0.015459,,,,,,
1736674581428,,,,,,,,,,,,,-0.123974,-0.278149,1.152399,,,,,,
1736674581439,,,,,,,,,,,,,0.03016,-0.206917,0.882247,,,,,,
1736674581448,,,,,,,,,,,,,-0.27585,0.102995,0.817047,,,,,,
1736674581459,,,,,,,,,,,,,-0.336097,-0.010597,1.011443,,,,,,
1736674581468,,,,,,,,,,,,,0.064863,0.170744,0.468927,,,,,,
1736674581478,,,,,,,,,,,,,-0.071226,0.165589,0.682465,,,,,,
1736674579118,,,,,,,,,,,,,,,,0.114629,-0.096342,-0.887919,,,
1736674579129,,,,,,,,,,,,,,,,0.114745,-0.096463,-0.888108,,,
1736674579139,,,,,,,,,,,,,,,,0.115376,-0.097737,-0.888196,,,
1736674579148,,,,,,,,,,,,,,,,0.115799,-0.09876,-0.888259,,,
1736674579158,,,,,,,,,,,,,,,,0.11704,-0.100139,-0.891744,,,
1736674579168,,,,,,,,,,,,,,,,0.118134,-0.101436,-0.894903,,,
1736674579178,,,,,,,,,,,,,,,,0.118446,-0.102295,-0.897864,,,
1736674579189,,,,,,,,,,,,,,,,0.119083,-0.103122,-0.900604,,,
1736674579198,,,,,,,,,,,,,,,,0.118522,-0.103227,-0.903293,,,
1736674579208,,,,,,,,,,,,,,,,0.118103,-0.103677,-0.905773,,,
1736674579219,,,,,,,,,,,,,,,,0.117564,-0.103559,-0.908239,,,
1736674579229,,,,,,,,,,,,,,,,0.117024,-0.103586,-0.910562,,,
1736674579239,,,,,,,,,,,,,,,,0.1166,-0.103569,-0.912802,,,
1736674579249,,,,,,,,,,,,,,,,0.115923,-0.103556,-0.9149,,,
1736674579258,,,,,,,,,,,,,,,,0.115437,-0.103938,-0.91689,,,
1736674579268,,,,,,,,,,,,,,,,0.115053,-0.104351,-0.918715,,,
1736674579278,,,,,,,,,,,,,,,,0.114247,-0.104869,-0.920414,,,
1736674579289,,,,,,,,,,,,,,,,0.113547,-0.10548,-0.922072,,,
1736674579298,,,,,,,,,,,,,,,,0.112737,-0.106463,-0.923534,,,
1736674579310,,,,,,,,,,,,,,,,0.111806,-0.107195,-0.924963,,,
1736674579319,,,,,,,,,,,,,,,,0.110549,-0.108487,-0.92627,,,
1736674579330,,,,,,,,,,,,,,,,0.109378,-0.109577,-0.927527,,,
1736674579340,,,,,,,,,,,,,,,,0.10783,-0.110899,-0.928684,,,
1736674579350,,,,,,,,,,,,,,,,0.106663,-0.112035,-0.929778,,,
1736674579359,,,,,,,,,,,,,,,,0.105689,-0.112749,-0.930879,,,
1736674579370,,,,,,,,,,,,,,,,0.104671,-0.113587,-0.931914,,,
1736674579380,,,,,,,,,,,,,,,,0.104091,-0.113574,-0.93295,,,
1736674579389,,,,,,,,,,,,,,,,0.103666,-0.113857,-0.933896,,,
1736674579399,,,,,,,,,,,,,,,,0.102719,-0.114043,-0.93477,,,
1736674579409,,,,,,,,,,,,,,,,0.101985,-0.114406,-0.935574,,,
1736674579419,,,,,,,,,,,,,,,,0.10062,-0.115404,-0.936291,,,
1736674579430,,,,,,,,,,,,,,,,0.0993,-0.116122,-0.937038,,,
1736674579440,,,,,,,,,,,,,,,,0.097976,-0.117635,-0.937704,,,
1736674579449,,,,,,,,,,,,,,,,0.096659,-0.118703,-0.93839,,,
1736674579459,,,,,,,,,,,,,,,,0.095576,-0.120018,-0.939065,,,
1736674579470,,,,,,,,,,,,,,,,0.094235,-0.121133,-0.939738,,,
1736674579479,,,,,,,,,,,,,,,,0.093283,-0.121867,-0.940376,,,
1736674579490,,,,,,,,,,,,,,,,0.092589,-0.122505,-0.941008,,,
1736674579499,,,,,,,,,,,,,,,,0.091682,-0.122977,-0.941577,,,
1736674579509,,,,,,,,,,,,,,,,0.090918,-0.123527,-0.942099,,,
1736674579519,,,,,,,,,,,,,,,,0.090332,-0.123887,-0.942524,,,
1736674579529,,,,,,,,,,,,,,,,0.089627,-0.124367,-0.94296,,,
1736674579540,,,,,,,,,,,,,,,,0.088655,-0.125061,-0.943276,,,
1736674579551,,,,,,,,,,,,,,,,0.087977,-0.125524,-0.943606,,,
1736674579561,,,,,,,,,,,,,,,,0.086809,-0.125794,-0.943953,,,
1736674579570,,,,,,,,,,,,,,,,0.085888,-0.126169,-0.944276,,,
1736674579581,,,,,,,,,,,,,,,,0.084981,-0.126064,-0.944683,,,
1736674579590,,,,,,,,,,,,,,,,0.08416,-0.126032,-0.945079,,,
1736674579600,,,,,,,,,,,,,,,,0.083309,-0.125709,-0.945475,,,
1736674579611,,,,,,,,,,,,,,,,0.082646,-0.12551,-0.945859,,,
1736674579621,,,,,,,,,,,,,,,,0.08168,-0.125458,-0.946173,,,
1736674579630,,,,,,,,,,,,,,,,0.080704,-0.125472,-0.946501,,,
1736674579640,,,,,,,,,,,,,,,,0.079551,-0.125699,-0.946746,,,
1736674579650,,,,,,,,,,,,,,,,0.078497,-0.125988,-0.946983,,,
1736674579660,,,,,,,,,,,,,,,,0.07763,-0.126474,-0.947154,,,
1736674579670,,,,,,,,,,,,,,,,0.076793,-0.126933,-0.94737,,,
1736674579680,,,,,,,,,,,,,,,,0.07611,-0.127493,-0.947513,,,
1736674579690,,,,,,,,,,,,,,,,0.075566,-0.127854,-0.947638,,,
1736674579700,,,,,,,,,,,,,,,,0.075318,-0.128242,-0.947777,,,
1736674579710,,,,,,,,,,,,,,,,0.075227,-0.128521,-0.947895,,,
1736674579720,,,,,,,,,,,,,,,,0.074991,-0.128638,-0.948142,,,
1736674579730,,,,,,,,,,,,,,,,0.074767,-0.128853,-0.948334,,,
1736674579740,,,,,,,,,,,,,,,,0.074541,-0.128921,-0.948615,,,
1736674579750,,,,,,,,,,,,,,,,0.074237,-0.129008,-0.948873,,,
1736674579761,,,,,,,,,,,,,,,,0.073768,-0.129077,-0.949174,,,
1736674579771,,,,,,,,,,,,,,,,0.073435,-0.129022,-0.949481,,,
1736674579781,,,,,,,,,,,,,,,,0.073269,-0.128963,-0.949844,,,
1736674579791,,,,,,,,,,,,,,,,0.072738,-0.129004,-0.950182,,,
1736674579802,,,,,,,,,,,,,,,,0.072407,-0.12889,-0.950543,,,
1736674579812,,,,,,,,,,,,,,,,0.072274,-0.128697,-0.950886,,,
1736674579821,,,,,,,,,,,,,,,,0.072181,-0.128923,-0.951177,,,
1736674579831,,,,,,,,,,,,,,,,0.071994,-0.129131,-0.951434,,,
1736674579841,,,,,,,,,,,,,,,,0.072171,-0.129411,-0.951721,,,
1736674579852,,,,,,,,,,,,,,,,0.072161,-0.129722,-0.951966,,,
1736674579862,,,,,,,,,,,,,,,,0.071764,-0.130113,-0.9522,,,
1736674579871,,,,,,,,,,,,,,,,0.071726,-0.130334,-0.952427,,,
1736674579882,,,,,,,,,,,,,,,,0.07128,-0.13053,-0.952558,,,
1736674579891,,,,,,,,,,,,,,,,0.071013,-0.130721,-0.95273,,,
1736674579902,,,,,,,,,,,,,,,,0.070813,-0.130446,-0.952887,,,
1736674579911,,,,,,,,,,,,,,,,0.070524,-0.13025,-0.953023,,,
1736674579921,,,,,,,,,,,,,,,,0.069841,-0.129807,-0.953178,,,
1736674579931,,,,,,,,,,,,,,,,0.069496,-0.12944,-0.953329,,,
1736674579942,,,,,,,,,,,,,,,,0.069193,-0.128585,-0.953573,,,
1736674579951,,,,,,,,,,,,,,,,0.068482,-0.128013,-0.9538,,,
1736674579961,,,,,,,,,,,,,,,,0.068028,-0.127554,-0.954069,,,
1736674579972,,,,,,,,,,,,,,,,0.067588,-0.127009,-0.954298,,,
1736674579981,,,,,,,,,,,,,,,,0.067032,-0.127263,-0.954458,,,
1736674579991,,,,,,,,,,,,,,,,0.066639,-0.127378,-0.954605,,,
1736674580002,,,,,,,,,,,,,,,,0.066307,-0.128072,-0.954666,,,
1736674580012,,,,,,,,,,,,,,,,0.066115,-0.128633,-0.954721,,,
1736674580022,,,,,,,,,,,,,,,,0.065749,-0.129163,-0.954818,,,
1736674580033,,,,,,,,,,,,,,,,0.065593,-0.129584,-0.954894,,,
1736674580042,,,,,,,,,,,,,,,,0.065183,-0.129471,-0.955046,,,
1736674580052,,,,,,,,,,,,,,,,0.064525,-0.129629,-0.95518,,,
1736674580062,,,,,,,,,,,,,,,,0.063534,-0.12921,-0.955458,,,
1736674580072,,,,,,,,,,,,,,,,0.062789,-0.128849,-0.955685,,,
1736674580082,,,,,,,,,,,,,,,,0.061454,-0.128718,-0.955977,,,
1736674580092,,,,,,,,,,,,,,,,0.060448,-0.128657,-0.956223,,,
1736674580103,,,,,,,,,,,,,,,,0.059594,-0.128814,-0.95637,,,
1736674580112,,,,,,,,,,,,,,,,0.05872,-0.129017,-0.956547,,,
1736674580123,,,,,,,,,,,,,,,,0.058062,-0.129384,-0.956671,,,
1736674580133,,,,,,,,,,,,,,,,0.05753,-0.129544,-0.956805,,,
1736674580143,,,,,,,,,,,,,,,,0.056639,-0.129624,-0.956965,,,
1736674580152,,,,,,,,,,,,,,,,0.055918,-0.129804,-0.957098,,,
1736674580162,,,,,,,,,,,,,,,,0.055399,-0.129752,-0.957198,,,
1736674580172,,,,,,,,,,,,,,,,0.054791,-0.12968,-0.957313,,,
1736674580183,,,,,,,,,,,,,,,,0.054372,-0.129745,-0.957421,,,
1736674580192,,,,,,,,,,,,,,,,0.054035,-0.129826,-0.957517,,,
1736674580203,,,,,,,,,,,,,,,,0.053706,-0.130167,-0.957534,,,
1736674580212,,,,,,,,,,,,,,,,0.053464,-0.130381,-0.957581,,,
1736674580222,,,,,,,,,,,,,,,,0.052968,-0.130686,-0.957552,,,
1736674580233,,,,,,,,,,,,,,,,0.052763,-0.131079,-0.957491,,,
1736674580243,,,,,,,,,,,,,,,,0.05214,-0.13106,-0.957512,,,
1736674580253,,,,,,,,,,,,,,,,0.051675,-0.131147,-0.957511,,,
1736674580263,,,,,,,,,,,,,,,,0.051017,-0.131284,-0.95759,,,
1736674580274,,,,,,,,,,,,,,,,0.050297,-0.1314,-0.957635,,,
1736674580283,,,,,,,,,,,,,,,,0.04998,-0.13182,-0.957751,,,
1736674580293,,,,,,,,,,,,,,,,0.049446,-0.131985,-0.957872,,,
1736674580303,,,,,,,,,,,,,,,,0.048961,-0.132674,-0.958,,,
1736674580314,,,,,,,,,,,,,,,,0.048653,-0.133115,-0.958132,,,
1736674580323,,,,,,,,,,,,,,,,0.048281,-0.133404,-0.958236,,,
1736674580334,,,,,,,,,,,,,,,,0.048011,-0.133836,-0.958326,,,
1736674580344,,,,,,,,,,,,,,,,0.04772,-0.133715,-0.958476,,,
1736674580354,,,,,,,,,,,,,,,,0.047453,-0.133723,-0.958607,,,
1736674580363,,,,,,,,,,,,,,,,0.047476,-0.133606,-0.958713,,,
1736674580374,,,,,,,,,,,,,,,,0.047468,-0.13339,-0.958854,,,
1736674580383,,,,,,,,,,,,,,,,0.047773,-0.133598,-0.958882,,,
1736674580393,,,,,,,,,,,,,,,,0.047892,-0.133713,-0.958915,,,
1736674580404,,,,,,,,,,,,,,,,0.048194,-0.134174,-0.958929,,,
1736674580414,,,,,,,,,,,,,,,,0.048368,-0.134485,-0.958939,,,
1736674580423,,,,,,,,,,,,,,,,0.048379,-0.134954,-0.958924,,,
1736674580433,,,,,,,,,,,,,,,,0.048446,-0.135593,-0.958875,,,
1736674580443,,,,,,,,,,,,,,,,0.048062,-0.136349,-0.958808,,,
1736674580453,,,,,,,,,,,,,,,,0.04805,-0.137,-0.958731,,,
1736674580464,,,,,,,,,,,,,,,,0.047313,-0.137471,-0.958715,,,
1736674580475,,,,,,,,,,,,,,,,0.046774,-0.138076,-0.958684,,,
1736674580484,,,,,,,,,,,,,,,,0.045619,-0.138118,-0.958783,,,
1736674580494,,,,,,,,,,,,,,,,0.044952,-0.138289,-0.958819,,,
1736674580505,,,,,,,,,,,,,,,,0.043763,-0.138579,-0.95888,,,
1736674580514,,,,,,,,,,,,,,,,0.042547,-0.138508,-0.959046,,,
1736674580524,,,,,,,,,,,,,,,,0.042588,-0.138347,-0.959224,,,
1736674580534,,,,,,,,,,,,,,,,0.042259,-0.138107,-0.959422,,,
1736674580545,,,,,,,,,,,,,,,,0.041865,-0.13805,-0.959519,,,
1736674580555,,,,,,,,,,,,,,,,0.041667,-0.13803,-0.959634,,,
1736674580564,,,,,,,,,,,,,,,,0.041824,-0.13786,-0.959708,,,
1736674580575,,,,,,,,,,,,,,,,0.041852,-0.137747,-0.959772,,,
1736674580584,,,,,,,,,,,,,,,,0.042674,-0.137405,-0.959876,,,
1736674580594,,,,,,,,,,,,,,,,0.043201,-0.137062,-0.959975,,,
1736674580604,,,,,,,,,,,,,,,,0.044044,-0.136935,-0.96007,,,
1736674580614,,,,,,,,,,,,,,,,0.044634,-0.136798,-0.960148,,,
1736674580625,,,,,,,,,,,,,,,,0.045482,-0.137,-0.960202,,,
1736674580635,,,,,,,,,,,,,,,,0.046125,-0.137121,-0.960224,,,
1736674580644,,,,,,,,,,,,,,,,0.046806,-0.137232,-0.960251,,,
1736674580655,,,,,,,,,,,,,,,,0.047338,-0.137478,-0.960239,,,
1736674580664,,,,,,,,,,,,,,,,0.047463,-0.137773,-0.960212,,,
1736674580674,,,,,,,,,,,,,,,,0.048037,-0.138062,-0.960159,,,
1736674580684,,,,,,,,,,,,,,,,0.04751,-0.138109,-0.960154,,,
1736674580696,,,,,,,,,,,,,,,,0.047275,-0.138356,-0.96013,,,
1736674580705,,,,,,,,,,,,,,,,0.046789,-0.138521,-0.960146,,,
1736674580715,,,,,,,,,,,,,,,,0.046128,-0.138571,-0.960189,,,
1736674580725,,,,,,,,,,,,,,,,0.045305,-0.138754,-0.960285,,,
1736674580736,,,,,,,,,,,,,,,,0.044627,-0.138762,-0.960376,,,
1736674580746,,,,,,,,,,,,,,,,0.043994,-0.138603,-0.960555,,,
1736674580755,,,,,,,,,,,,,,,,0.043511,-0.138552,-0.960694,,,
1736674580765,,,,,,,,,,,,,,,,0.042948,-0.138044,-0.960911,,,
1736674580776,,,,,,,,,,,,,,,,0.042506,-0.137645,-0.961111,,,
1736674580785,,,,,,,,,,,,,,,,0.042637,-0.136997,-0.961374,,,
1736674580796,,,,,,,,,,,,,,,,0.042383,-0.136411,-0.961634,,,
1736674580805,,,,,,,,,,,,,,,,0.04304,-0.136295,-0.961777,,,
1736674580816,,,,,,,,,,,,,,,,0.043214,-0.135999,-0.961982,,,
1736674580825,,,,,,,,,,,,,,,,0.043882,-0.136106,-0.962083,,,
1736674580835,,,,,,,,,,,,,,,,0.044513,-0.136116,-0.962177,,,
1736674580845,,,,,,,,,,,,,,,,0.04477,-0.135962,-0.962301,,,
1736674580856,,,,,,,,,,,,,,,,0.045083,-0.13597,-0.962358,,,
1736674580865,,,,,,,,,,,,,,,,0.045203,-0.135501,-0.962502,,,
1736674580875,,,,,,,,,,,,,,,,0.045427,-0.135346,-0.962598,,,
1736674580885,,,,,,,,,,,,,,,,0.045839,-0.135026,-0.962741,,,
1736674580896,,,,,,,,,,,,,,,,0.046138,-0.13479,-0.962827,,,
1736674580905,,,,,,,,,,,,,,,,0.046549,-0.134849,-0.962871,,,
1736674580915,,,,,,,,,,,,,,,,0.046865,-0.134851,-0.962943,,,
1736674580927,,,,,,,,,,,,,,,,0.04678,-0.135185,-0.962902,,,
1736674580936,,,,,,,,,,,,,,,,0.046797,-0.135332,-0.962903,,,
1736674580946,,,,,,,,,,,,,,,,0.046178,-0.135505,-0.9629,,,
1736674580956,,,,,,,,,,,,,,,,0.045968,-0.135757,-0.962853,,,
1736674580966,,,,,,,,,,,,,,,,0.045394,-0.13562,-0.962885,,,
1736674580977,,,,,,,,,,,,,,,,0.04488,-0.135505,-0.962923,,,
1736674580986,,,,,,,,,,,,,,,,0.044781,-0.13517,-0.963035,,,
1736674580996,,,,,,,,,,,,,,,,0.044541,-0.134826,-0.96312,,,
1736674581006,,,,,,,,,,,,,,,,0.044411,-0.134212,-0.963274,,,
1736674581016,,,,,,,,,,,,,,,,0.044118,-0.133777,-0.963415,,,
1736674581026,,,,,,,,,,,,,,,,0.043767,-0.13327,-0.963527,,,
1736674581037,,,,,,,,,,,,,,,,0.043635,-0.132749,-0.963625,,,
1736674581047,,,,,,,,,,,,,,,,0.043339,-0.131921,-0.963782,,,
1736674581056,,,,,,,,,,,,,,,,0.043071,-0.131601,-0.963868,,,
1736674581067,,,,,,,,,,,,,,,,0.043273,-0.131301,-0.963968,,,
1736674581076,,,,,,,,,,,,,,,,0.043402,-0.130955,-0.964074,,,
1736674581086,,,,,,,,,,,,,,,,0.043254,-0.131278,-0.964119,,,
1736674581096,,,,,,,,,,,,,,,,0.043131,-0.131437,-0.964154,,,
1736674581106,,,,,,,,,,,,,,,,0.042802,-0.131836,-0.964253,,,
1736674581116,,,,,,,,,,,,,,,,0.042516,-0.132184,-0.964335,,,
1736674581126,,,,,,,,,,,,,,,,0.042328,-0.132485,-0.964428,,,
1736674581137,,,,,,,,,,,,,,,,0.042112,-0.132676,-0.964528,,,
1736674581146,,,,,,,,,,,,,,,,0.042003,-0.132805,-0.964674,,,
1736674581157,,,,,,,,,,,,,,,,0.041937,-0.1329,-0.964811,,,
1736674581167,,,,,,,,,,,,,,,,0.041728,-0.132791,-0.964985,,,
1736674581177,,,,,,,,,,,,,,,,0.041555,-0.13264,-0.965174,,,
1736674581188,,,,,,,,,,,,,,,,0.041415,-0.132075,-0.965388,,,
1736674581198,,,,,,,,,,,,,,,,0.041342,-0.131646,-0.965583,,,
1736674581208,,,,,,,,,,,,,,,,0.04177,-0.131053,-0.965784,,,
1736674581217,,,,,,,,,,,,,,,,0.041901,-0.130469,-0.965988,,,
1736674581227,,,,,,,,,,,,,,,,0.042103,-0.130271,-0.966092,,,
1736674581237,,,,,,,,,,,,,,,,0.042325,-0.129955,-0.966218,,,
1736674581247,,,,,,,,,,,,,,,,0.042866,-0.129428,-0.966325,,,
1736674581257,,,,,,,,,,,,,,,,0.043276,-0.129124,-0.966403,,,
1736674581268,,,,,,,,,,,,,,,,0.042976,-0.128474,-0.966486,,,
1736674581278,,,,,,,,,,,,,,,,0.043185,-0.128024,-0.966555,,,
1736674581287,,,,,,,,,,,,,,,,0.0427,-0.127572,-0.966576,,,
1736674581298,,,,,,,,,,,,,,,,0.042202,-0.127311,-0.966604,,,
1736674581307,,,,,,,,,,,,,,,,0.041812,-0.127611,-0.966562,,,
1736674581317,,,,,,,,,,,,,,,,0.041403,-0.127708,-0.966557,,,
1736674581327,,,,,,,,,,,,,,,,0.041799,-0.128438,-0.96646,,,
1736674581337,,,,,,,,,,,,,,,,0.042038,-0.129083,-0.96636,,,
1736674581347,,,,,,,,,,,,,,,,0.041979,-0.129726,-0.966281,,,
1736674581358,,,,,,,,,,,,,,,,0.042349,-0.130408,-0.966163,,,
1736674581367,,,,,,,,,,,,,,,,0.043827,-0.132627,-0.96586,,,
1736674581378,,,,,,,,,,,,,,,,0.044022,-0.133146,-0.965761,,,
1736674581388,,,,,,,,,,,,,,,,0.044196,-0.133724,-0.965647,,,
1736674581398,,,,,,,,,,,,,,,,0.045835,-0.135044,-0.965376,,,
1736674581408,,,,,,,,,,,,,,,,0.04474,-0.133127,-0.96568,,,
1736674581418,,,,,,,,,,,,,,,,0.043594,-0.131903,-0.965941,,,
1736674581428,,,,,,,,,,,,,,,,0.043373,-0.12933,-0.96643,,,
1736674581439,,,,,,,,,,,,,,,,0.042606,-0.127511,-0.966829,,,
1736674581448,,,,,,,,,,,,,,,,0.043108,-0.126847,-0.967112,,,
1736674581458,,,,,,,,,,,,,,,,0.043539,-0.125887,-0.967397,,,
1736674581468,,,,,,,,,,,,,,,,0.042866,-0.12637,-0.967516,,,
1736674581478,,,,,,,,,,,,,,,,0.042744,-0.126797,-0.967606,,,
1736674579180,,,,,,,,,,,,,,,,,,,193.0,,
1736674579259,,,,,,,,,,,,,,,,,,,202.0,,
1736674579464,,,,,,,,,,,,,,,,,,,172.0,,
1736674579659,,,,,,,,,,,,,,,,,,,199.0,,
1736674579861,,,,,,,,,,,,,,,,,,,232.0,,
1736674580066,,,,,,,,,,,,,,,,,,,249.0,,
1736674580267,,,,,,,,,,,,,,,,,,,265.0,,
1736674580470,,,,,,,,,,,,,,,,,,,311.0,,
1736674580659,,,,,,,,,,,,,,,,,,,365.0,,
1736674580864,,,,,,,,,,,,,,,,,,,393.0,,
1736674581063,,,,,,,,,,,,,,,,,,,346.0,,
1736674581262,,,,,,,,,,,,,,,,,,,320.0,,
1736674581459,,,,,,,,,,,,,,,,,,,300.0,,
1736674579180,,,,,,,,,,,,,,,,,,,,,5.0
1736674579180,,,,,,,,,,,,,,,,,,,,,5.0
1736674581488,-0.24705002,2.63505,9.64605,,,,,,,,,,,,,,,,,,
1736674581498,-0.33405003,2.63205,9.366,,,,,,,,,,,,,,,,,,
1736674581508,-0.324,2.6560502,9.114,,,,,,,,,,,,,,,,,,
1736674581518,-0.303,2.69895,8.905951,,,,,,,,,,,,,,,,,,
1736674581529,-0.252,2.733,8.785951,,,,,,,,,,,,,,,,,,
1736674581539,-0.18795002,2.7570002,8.82705,,,,,,,,,,,,,,,,,,
1736674581549,-0.075,2.7229502,8.950951,,,,,,,,,,,,,,,,,,
1736674581558,-0.006,2.6869502,9.1050005,,,,,,,,,,,,,,,,,,
1736674581568,-0.030000001,2.5849502,9.259951,,,,,,,,,,,,,,,,,,
1736674581578,-0.051000003,2.49405,9.385051,,,,,,,,,,,,,,,,,,
1736674581589,-0.06795,2.46,9.543,,,,,,,,,,,,,,,,,,
1736674581599,-0.109050006,2.46,9.663,,,,,,,,,,,,,,,,,,
1736674581609,-0.171,2.4859502,9.739051,,,,,,,,,,,,,,,,,,
1736674581619,-0.21195,2.49795,9.744,,,,,,,,,,,,,,,,,,
1736674581630,-0.24495001,2.529,9.75405,,,,,,,,,,,,,,,,,,
1736674581639,-0.29505002,2.5870502,9.732,,,,,,,,,,,,,,,,,,
1736674581649,-0.30705002,2.6419501,9.721951,,,,,,,,,,,,,,,,,,
1736674581659,-0.30495003,2.673,9.67905,,,,,,,,,,,,,,,,,,
1736674581670,-0.27405003,2.6899502,9.60795,,,,,,,,,,,,,,,,,,
1736674581679,-0.303,2.661,9.505051,,,,,,,,,,,,,,,,,,
1736674581689,-0.29505002,2.637,9.397051,,,,,,,,,,,,,,,,,,
1736674581700,-0.324,2.6440501,9.241051,,,,,,,,,,,,,,,,,,
1736674581710,-0.34800002,2.64,9.184051,,,,,,,,,,,,,,,,,,
1736674581719,-0.32895002,2.64,9.214951,,,,,,,,,,,,,,,,,,
1736674581730,-0.27105,2.6520002,9.27705,,,,,,,,,,,,,,,,,,
1736674581739,-0.24000001,2.6590502,9.265051,,,,,,,,,,,,,,,,,,
1736674581749,-0.24705002,2.64,9.222,,,,,,,,,,,,,,,,,,
1736674581759,-0.29295,2.6160002,9.24405,,,,,,,,,,,,,,,,,,
1736674581769,-0.27105,2.59395,9.27,,,,,,,,,,,,,,,,,,
1736674581780,-0.252,2.5819502,9.327001,,,,,,,,,,,,,,,,,,
1736674581789,-0.28095,2.56995,9.42105,,,,,,,,,,,,,,,,,,
1736674581799,-0.26205,2.59605,9.531,,,,,,,,,,,,,,,,,,
1736674581810,-0.24495001,2.6110501,9.568951,,,,,,,,,,,,,,,,,,
1736674581819,-0.25500003,2.637,9.526051,,,,,,,,,,,,,,,,,,
1736674581829,-0.25500003,2.66595,9.46605,,,,,,,,,,,,,,,,,,
1736674581840,-0.303,2.66805,9.418051,,,,,,,,,,,,,,,,,,
1736674581850,-0.36195,2.664,9.3820505,,,,,,,,,,,,,,,,,,
1736674581860,-0.41295,2.6560502,9.538051,,,,,,,,,,,,,,,,,,
1736674581870,-0.40800002,2.6779501,9.73005,,,,,,,,,,,,,,,,,,
1736674581880,-0.41700003,2.69895,9.813001,,,,,,,,,,,,,,,,,,
1736674581890,-0.40305,2.6899502,9.77295,,,,,,,,,,,,,,,,,,
1736674581900,-0.39600003,2.6440501,9.736951,,,,,,,,,,,,,,,,,,
1736674581911,-0.39105,2.6749501,9.67695,,,,,,,,,,,,,,,,,,
1736674581921,-0.33405003,2.7160501,9.59805,,,,,,,,,,,,,,,,,,
1736674581930,-0.31695002,2.70405,9.59805,,,,,,,,,,,,,,,,,,
1736674581941,-0.28800002,2.709,9.59595,,,,,,,,,,,,,,,,,,
1736674581951,-0.27105,2.6950502,9.49695,,,,,,,,,,,,,,,,,,
1736674581961,-0.24495001,2.6869502,9.361051,,,,,,,,,,,,,,,,,,
1736674581970,-0.21900001,2.6539502,9.232051,,,,,,,,,,,,,,,,,,
1736674581980,-0.14400001,2.6110501,9.17205,,,,,,,,,,,,,,,,,,
1736674581990,-0.06105,2.5890002,9.214951,,,,,,,,,,,,,,,,,,
1736674582000,0.156,2.55795,9.02805,,,,,,,,,,,,,,,,,,
1736674582010,0.09900001,2.601,9.32295,,,,,,,,,,,,,,,,,,
1736674582020,-0.28095,2.5560002,9.50895,,,,,,,,,,,,,,,,,,
1736674582030,-0.393,2.57505,9.5449505,,,,,,,,,,,,,,,,,,
1736674582041,-0.33600003,2.6830502,9.543,,,,,,,,,,,,,,,,,,
1736674582051,-0.20205002,2.7499502,9.495001,,,,,,,,,,,,,,,,,,
1736674582060,-0.15195,2.7570002,9.43305,,,,,,,,,,,,,,,,,,
1736674582070,-0.12105001,2.77395,9.44505,,,,,,,,,,,,,,,,,,
1736674582081,-0.11100001,2.7520502,9.49695,,,,,,,,,,,,,,,,,,
1736674582091,-0.11805001,2.6800501,9.571951,,,,,,,,,,,,,,,,,,
1736674582101,-0.13005,2.59605,9.574051,,,,,,,,,,,,,,,,,,
1736674582112,-0.09195001,2.56995,9.471001,,,,,,,,,,,,,,,,,,
1736674582122,-0.063,2.57505,9.44505,,,,,,,,,,,,,,,,,,
1736674582131,-0.094050005,2.59905,9.547951,,,,,,,,,,,,,,,,,,
1736674582142,-0.11100001,2.637,9.592951,,,,,,,,,,,,,,,,,,
1736674582152,-0.123,2.604,9.651,,,,,,,,,,,,,,,,,,
1736674582161,-0.112950005,2.6250002,9.604951,,,,,,,,,,,,,,,,,,
1736674582172,-0.087000005,2.6850002,9.50205,,,,,,,,,,,,,,,,,,
1736674582181,-0.109050006,2.6749501,9.45405,,,,,,,,,,,,,,,,,,
1736674582192,-0.20400001,2.6560502,9.45405,,,,,,,,,,,,,,,,,,
1736674582202,-0.30495003,2.6560502,9.46905,,,,,,,,,,,,,,,,,,
1736674582211,-0.37905002,2.6520002,9.4810505,,,,,,,,,,,,,,,,,,
1736674582222,-0.37395,2.7210002,9.435,,,,,,,,,,,,,,,,,,
1736674582231,-0.291,2.80995,9.342,,,,,,,,,,,,,,,,,,
1736674582242,-0.30495003,2.901,9.184051,,,,,,,,,,,,,,,,,,
1736674582252,-0.32895002,2.9920502,9.0709505,,,,,,,,,,,,,,,,,,
1736674582261,-0.33105,3.04905,8.98005,,,,,,,,,,,,,,,,,,
1736674582271,-0.33105,3.0589502,8.889001,,,,,,,,,,,,,,,,,,
1736674582281,-0.32895002,3.0180001,8.937,,,,,,,,,,,,,,,,,,
1736674582292,-0.291,2.9530501,9.121051,,,,,,,,,,,,,,,,,,
1736674582301,-0.34095,2.8860002,9.234,,,,,,,,,,,,,,,,,,
1736674582313,-0.42495003,2.841,9.31305,,,,,,,,,,,,,,,,,,
1736674582322,-0.42495003,2.874,9.366,,,,,,,,,,,,,,,,,,
1736674582333,-0.43905002,2.9629502,9.403951,,,,,,,,,,,,,,,,,,
1736674582343,-0.47700003,3.01305,9.36795,,,,,,,,,,,,,,,,,,
1736674582353,-0.46995002,3.0589502,9.27495,,,,,,,,,,,,,,,,,,
1736674582363,-0.45105,3.10905,9.196051,,,,,,,,,,,,,,,,,,
1736674582372,-0.38895002,3.0990002,9.196051,,,,,,,,,,,,,,,,,,
1736674582382,-0.40305,3.04395,9.29895,,,,,,,,,,,,,,,,,,
1736674582392,-0.42495003,2.9839501,9.43305,,,,,,,,,,,,,,,,,,
1736674582403,-0.453,2.9479501,9.568951,,,,,,,,,,,,,,,,,,
1736674582412,-0.48900002,2.9149501,9.615001,,,,,,,,,,,,,,,,,,
1736674582422,-0.528,2.901,9.556951,,,,,,,,,,,,,,,,,,
1736674582432,-0.49905002,2.9290502,9.43995,,,,,,,,,,,,,,,,,,
1736674582442,-0.42495003,2.97705,9.33195,,,,,,,,,,,,,,,,,,
1736674582452,-0.39795002,2.97705,9.259951,,,,,,,,,,,,,,,,,,
1736674582462,-0.44400004,2.9530501,9.198001,,,,,,,,,,,,,,,,,,
1736674582472,-0.46305,2.9170501,9.189,,,,,,,,,,,,,,,,,,
1736674582482,-0.46995002,2.913,9.246,,,,,,,,,,,,,,,,,,
1736674582492,-0.46995002,2.9149501,9.303,,,,,,,,,,,,,,,,,,
1736674582503,-0.51600003,2.913,9.32295,,,,,,,,,,,,,,,,,,
1736674582512,-0.52005005,2.94105,9.31995,,,,,,,,,,,,,,,,,,
1736674582522,-0.513,2.9920502,9.25605,,,,,,,,,,,,,,,,,,
1736674582532,-0.549,3.0300002,9.214951,,,,,,,,,,,,,,,,,,
1736674582544,-0.53205,3.0610502,9.265051,,,,,,,,,,,,,,,,,,
1736674582553,-0.42495003,3.0559502,9.342,,,,,,,,,,,,,,,,,,
1736674582563,-0.35805002,2.9940002,9.385051,,,,,,,,,,,,,,,,,,
1736674582574,-0.35295,2.9509501,9.351001,,,,,,,,,,,,,,,,,,
1736674582583,-0.36,2.9220002,9.27705,,,,,,,,,,,,,,,,,,
1736674582593,-0.35295,2.93595,9.28005,,,,,,,,,,,,,,,,,,
1736674582603,-0.39105,2.97195,9.35595,,,,,,,,,,,,,,,,,,
1736674582613,-0.40500003,2.97705,9.45705,,,,,,,,,,,,,,,,,,
1736674582623,-0.34800002,2.946,9.5140505,,,,,,,,,,,,,,,,,,
1736674582634,-0.30705002,2.9290502,9.49995,,,,,,,,,,,,,,,,,,
1736674582644,-0.27405003,2.91,9.397051,,,,,,,,,,,,,,,,,,
1736674582654,-0.24300002,2.946,9.31995,,,,,,,,,,,,,,,,,,
1736674582663,-0.20400001,2.9599502,9.351001,,,,,,,,,,,,,,,,,,
1736674582674,-0.20895001,2.9509501,9.339001,,,,,,,,,,,,,,,,,,
1736674582683,-0.20700002,2.8890002,9.29895,,,,,,,,,,,,,,,,,,
1736674582693,-0.28095,2.83095,9.32505,,,,,,,,,,,,,,,,,,
1736674582704,-0.33795002,2.8530002,9.358951,,,,,,,,,,,,,,,,,,
1736674582714,-0.36,2.90805,9.402,,,,,,,,,,,,,,,,,,
1736674582723,-0.36705002,2.97,9.47805,,,,,,,,,,,,,,,,,,
1736674582733,-0.33405003,3.01305,9.531,,,,,,,,,,,,,,,,,,
1736674582744,-0.32205,3.0540001,9.49005,,,,,,,,,,,,,,,,,,
1736674582754,-0.34800002,3.075,9.361051,,,,,,,,,,,,,,,,,,
1736674582763,-0.35295,3.0730503,9.291,,,,,,,,,,,,,,,,,,
1736674582774,-0.393,3.075,9.226951,,,,,,,,,,,,,,,,,,
1736674582784,-0.37395,3.1039503,9.20505,,,,,,,,,,,,,,,,,,
1736674582794,-0.303,3.0990002,9.220051,,,,,,,,,,,,,,,,,,
1736674582805,-0.22605,3.04695,9.19095,,,,,,,,,,,,,,,,,,
1736674582814,-0.19695,3.0229502,9.19995,,,,,,,,,,,,,,,,,,
1736674582824,-0.19005,2.9920502,9.20505,,,,,,,,,,,,,,,,,,
1736674582834,-0.19695,2.9650502,9.220051,,,,,,,,,,,,,,,,,,
1736674582844,-0.18795002,2.94105,9.30105,,,,,,,,,,,,,,,,,,
1736674582854,-0.18495001,2.9320502,9.354,,,,,,,,,,,,,,,,,,
1736674582865,-0.14895001,2.9509501,9.394051,,,,,,,,,,,,,,,,,,
1736674582874,-0.12105001,2.97495,9.415951,,,,,,,,,,,,,,,,,,
1736674582885,-0.16395001,3.006,9.406051,,,,,,,,,,,,,,,,,,
1736674582894,-0.21405001,2.9989502,9.397051,,,,,,,,,,,,,,,,,,
1736674582904,-0.22095,3.0300002,9.411,,,,,,,,,,,,,,,,,,
1736674582915,-0.21195,3.0180001,9.430051,,,,,,,,,,,,,,,,,,
1736674582924,-0.216,2.9989502,9.402,,,,,,,,,,,,,,,,,,
1736674582934,-0.21405001,3.01095,9.32295,,,,,,,,,,,,,,,,,,
1736674582944,-0.20700002,3.00795,9.222,,,,,,,,,,,,,,,,,,
1736674582955,-0.15195,3.015,9.165,,,,,,,,,,,,,,,,,,
1736674582965,-0.09900001,3.04905,9.16695,,,,,,,,,,,,,,,,,,
1736674582974,-0.11805001,3.08295,9.12405,,,,,,,,,,,,,,,,,,
1736674582984,-0.15195,3.0900002,9.09,,,,,,,,,,,,,,,,,,
1736674582996,-0.17595,3.1039503,9.13305,,,,,,,,,,,,,,,,,,
1736674583005,-0.18300001,3.075,9.17895,,,,,,,,,,,,,,,,,,
1736674583015,-0.19005,3.0730503,9.258,,,,,,,,,,,,,,,,,,
1736674583025,-0.17295001,3.0610502,9.363001,,,,,,,,,,,,,,,,,,
1736674583035,-0.09900001,3.01095,9.450001,,,,,,,,,,,,,,,,,,
1736674583045,-0.10395,2.9869502,9.44505,,,,,,,,,,,,,,,,,,
1736674583055,-0.109050006,2.97195,9.427951,,,,,,,,,,,,,,,,,,
1736674583066,-0.10395,2.9989502,9.373051,,,,,,,,,,,,,,,,,,
1736674583075,-0.006,2.97705,9.24405,,,,,,,,,,,,,,,,,,
1736674583085,-0.08895,2.9340003,9.33705,,,,,,,,,,,,,,,,,,
1736674583096,-0.19695,2.901,9.33705,,,,,,,,,,,,,,,,,,
1736674583105,-0.156,2.93895,9.339001,,,,,,,,,,,,,,,,,,
1736674583115,-0.03705,3.0040503,9.406051,,,,,,,,,,,,,,,,,,
1736674583125,-0.015000001,2.9869502,9.43995,,,,,,,,,,,,,,,,,,
1736674583135,-0.01995,2.98005,9.315001,,,,,,,,,,,,,,,,,,
1736674583145,0.010050001,2.982,9.294001,,,,,,,,,,,,,,,,,,
1736674583155,-0.042000003,2.9560502,9.366,,,,,,,,,,,,,,,,,,
1736674583165,-0.08205,2.9149501,9.373051,,,,,,,,,,,,,,,,,,
1736674583176,-0.079950005,2.9149501,9.394051,,,,,,,,,,,,,,,,,,
1736674583186,-0.042000003,2.9680502,9.399,,,,,,,,,,,,,,,,,,
1736674583196,-0.010050001,2.9890501,9.3820505,,,,,,,,,,,,,,,,,,
1736674583205,-0.003,3.0229502,9.31095,,,,,,,,,,,,,,,,,,
1736674583216,0.052950002,3.015,9.28005,,,,,,,,,,,,,,,,,,
1736674583226,0.096,2.97195,9.30105,,,,,,,,,,,,,,,,,,
1736674583237,0.10095,2.94405,9.327001,,,,,,,,,,,,,,,,,,
1736674583246,0.09900001,2.9269502,9.39,,,,,,,,,,,,,,,,,,
1736674583256,0.10395,2.9220002,9.435,,,,,,,,,,,,,,,,,,
1736674583266,0.12495001,2.87895,9.45705,,,,,,,,,,,,,,,,,,
1736674583277,0.14205001,2.874,9.42105,,,,,,,,,,,,,,,,,,
1736674583287,0.11505,2.86695,9.40905,,,,,,,,,,,,,,,,,,
1736674583297,0.192,2.8600502,9.306001,,,,,,,,,,,,,,,,,,
1736674583306,0.147,2.86695,9.43995,,,,,,,,,,,,,,,,,,
1736674583316,0.04095,2.88105,9.531,,,,,,,,,,,,,,,,,,
1736674583326,0.08205,2.8600502,9.50205,,,,,,,,,,,,,,,,,,
1736674583337,0.19500001,2.838,9.4810505,,,,,,,,,,,,,,,,,,
1736674583346,0.22095,2.802,9.411,,,,,,,,,,,,,,,,,,
1736674583357,0.21795002,2.7499502,9.351001,,,,,,,,,,,,,,,,,,
1736674583367,0.23505001,2.697,9.31095,,,,,,,,,,,,,,,,,,
1736674583376,0.29505002,2.66805,9.2029505,,,,,,,,,,,,,,,,,,
1736674583386,0.324,2.6440501,9.165,,,,,,,,,,,,,,,,,,
1736674583396,0.28095,2.637,9.16695,,,,,,,,,,,,,,,,,,
1736674583407,0.23805001,2.70195,9.229051,,,,,,,,,,,,,,,,,,
1736674583416,0.192,2.7210002,9.315001,,,,,,,,,,,,,,,,,,
1736674583427,0.04605,2.697,9.495001,,,,,,,,,,,,,,,,,,
1736674583436,-0.094050005,2.67105,9.706051,,,,,,,,,,,,,,,,,,
1736674583447,-0.17805001,2.66805,9.871051,,,,,,,,,,,,,,,,,,
1736674583458,-0.18300001,2.7210002,9.98595,,,,,,,,,,,,,,,,,,
1736674583468,-0.20895001,2.769,9.97605,,,,,,,,,,,,,,,,,,
1736674583477,-0.22305001,2.8290002,9.868951,,,,,,,,,,,,,,,,,,
1736674583487,-0.24705002,2.9200501,9.67695,,,,,,,,,,,,,,,,,,
1736674583497,-0.22095,2.9839501,9.538051,,,,,,,,,,,,,,,,,,
1736674583508,-0.13005,3.0300002,9.415951,,,,,,,,,,,,,,,,,,
1736674583517,-0.079950005,2.9940002,9.351001,,,,,,,,,,,,,,,,,,
1736674583527,0.01695,2.9320502,9.31095,,,,,,,,,,,,,,,,,,
1736674583537,0.120000005,2.88105,9.262951,,,,,,,,,,,,,,,,,,
1736674583547,0.147,2.8240502,9.262951,,,,,,,,,,,,,,,,,,
1736674583557,0.21405001,2.76195,9.259951,,,,,,,,,,,,,,,,,,
1736674583567,0.24000001,2.6869502,9.234,,,,,,,,,,,,,,,,,,
1736674583577,0.22995001,2.66595,9.250951,,,,,,,,,,,,,,,,,,
1736674583587,0.27405003,2.6179502,9.214951,,,,,,,,,,,,,,,,,,
1736674583597,0.26205,2.6179502,9.397051,,,,,,,,,,,,,,,,,,
1736674583608,0.079950005,2.568,9.538051,,,,,,,,,,,,,,,,,,
1736674583618,0.027,2.53695,9.59595,,,,,,,,,,,,,,,,,,
1736674583627,0.043950003,2.5849502,9.612,,,,,,,,,,,,,,,,,,
1736674583637,0.028950002,2.6160002,9.567,,,,,,,,,,,,,,,,,,
1736674583647,0.028950002,2.63505,9.450001,,,,,,,,,,,,,,,,,,
1736674583657,-0.01305,2.6539502,9.351001,,,,,,,,,,,,,,,,,,
1736674583667,-0.15195,2.6470501,9.366,,,,,,,,,,,,,,,,,,
1736674583678,-0.17595,2.64,9.366,,,,,,,,,,,,,,,,,,
1736674583688,-0.19005,2.63205,9.31305,,,,,,,,,,,,,,,,,,
1736674583698,-0.21405001,2.6419501,9.28905,,,,,,,,,,,,,,,,,,
1736674583708,-0.27405003,2.7109501,9.27495,,,,,,,,,,,,,,,,,,
1736674583718,-0.36,2.7589502,9.303,,,,,,,,,,,,,,,,,,
1736674583729,-0.47700003,2.877,9.16695,,,,,,,,,,,,,,,,,,
1736674583738,-0.52305,2.93895,9.106951,,,,,,,,,,,,,,,,,,
1736674583749,-0.53505003,2.9560502,9.117001,,,,,,,,,,,,,,,,,,
1736674583759,-0.504,2.9920502,9.15705,,,,,,,,,,,,,,,,,,
1736674583768,-0.49395,3.00795,9.229051,,,,,,,,,,,,,,,,,,
1736674583778,-0.48900002,2.9869502,9.294001,,,,,,,,,,,,,,,,,,
1736674583789,-0.55200005,2.9220002,9.351001,,,,,,,,,,,,,,,,,,
1736674583798,-0.58305,2.87895,9.4140005,,,,,,,,,,,,,,,,,,
1736674583808,-0.58695,2.86695,9.562051,,,,,,,,,,,,,,,,,,
1736674583819,-0.55905,2.8240502,9.721951,,,,,,,,,,,,,,,,,,
1736674583828,-0.54705,2.76195,9.67695,,,,,,,,,,,,,,,,,,
1736674583839,-0.48900002,2.7160501,9.627001,,,,,,,,,,,,,,,,,,
1736674583848,-0.49605003,2.66805,9.567,,,,,,,,,,,,,,,,,,
1736674583858,-0.549,2.67105,9.5119505,,,,,,,,,,,,,,,,,,
1736674583868,-0.61395,2.7139502,9.49005,,,,,,,,,,,,,,,,,,
1736674583878,-0.65895003,2.7280502,9.493051,,,,,,,,,,,,,,,,,,
1736674583888,-0.68100005,2.7450001,9.471001,,,,,,,,,,,,,,,,,,
1736674583898,-0.61095005,2.7160501,9.39,,,,,,,,,,,,,,,,,,
1736674583908,-0.55605,2.6830502,9.28905,,,,,,,,,,,,,,,,,,
1736674583919,-0.52305,2.66595,9.117001,,,,,,,,,,,,,,,,,,
1736674583929,-0.56595004,2.6850002,9.066,,,,,,,,,,,,,,,,,,
1736674583940,-0.61905,2.7210002,9.021001,,,,,,,,,,,,,,,,,,
1736674583949,-0.68100005,2.733,8.99895,,,,,,,,,,,,,,,,,,
1736674583960,-0.77400005,2.77395,9.05895,,,,,,,,,,,,,,,,,,
1736674583969,-0.87705004,2.7949502,9.17895,,,,,,,,,,,,,,,,,,
1736674583979,-0.89400005,2.86695,9.184051,,,,,,,,,,,,,,,,,,
1736674583990,-0.88905007,2.9509501,9.16905,,,,,,,,,,,,,,,,,,
1736674583999,-0.88905007,2.9920502,9.150001,,,,,,,,,,,,,,,,,,
1736674584009,-0.89595,2.9920502,9.10995,,,,,,,,,,,,,,,,,,
1736674584020,-0.89595,3.0040503,9.076051,,,,,,,,,,,,,,,,,,
1736674584029,-0.91995007,3.0270002,9.0070505,,,,,,,,,,,,,,,,,,
1736674584039,-0.95895004,3.0270002,8.93505,,,,,,,,,,,,,,,,,,
1736674584049,-1.00905,2.9650502,8.85795,,,,,,,,,,,,,,,,,,
1736674584059,-1.059,2.94105,8.928,,,,,,,,,,,,,,,,,,
1736674584069,-1.12395,2.93595,8.97795,,,,,,,,,,,,,,,,,,
1736674584079,-1.18095,3.0270002,9.057,,,,,,,,,,,,,,,,,,
1736674584089,-1.2240001,3.0940502,9.220051,,,,,,,,,,,,,,,,,,
1736674584100,-1.248,3.11805,9.31305,,,,,,,,,,,,,,,,,,
1736674584110,-1.2360001,3.1690502,9.330001,,,,,,,,,,,,,,,,,,
1736674584119,-1.1839501,3.17805,9.28005,,,,,,,,,,,,,,,,,,
1736674584130,-1.1880001,3.1710002,9.265051,,,,,,,,,,,,,,,,,,
1736674584141,-1.2430501,3.11595,9.40905,,,,,,,,,,,,,,,,,,
1736674584151,-1.3579501,2.93595,9.529051,,,,,,,,,,,,,,,,,,
1736674584160,-1.368,2.778,9.5119505,,,,,,,,,,,,,,,,,,
1736674584170,-1.2750001,2.7450001,9.4810505,,,,,,,,,,,,,,,,,,
1736674584180,-1.19805,2.74005,9.378,,,,,,,,,,,,,,,,,,
1736674584191,-1.164,2.77095,9.28005,,,,,,,,,,,,,,,,,,
1736674584200,-1.22895,2.80995,9.26805,,,,,,,,,,,,,,,,,,
1736674584210,-1.3660501,2.84505,9.282001,,,,,,,,,,,,,,,,,,
1736674584220,-1.50705,2.877,9.330001,,,,,,,,,,,,,,,,,,
1736674584230,-1.5670501,2.93895,9.351001,,,,,,,,,,,,,,,,,,
1736674584240,-1.4800501,2.9839501,9.373051,,,,,,,,,,,,,,,,,,
1736674584250,-1.437,2.9959502,9.411,,,,,,,,,,,,,,,,,,
1736674584260,-1.46595,2.982,9.46605,,,,,,,,,,,,,,,,,,
1736674584271,-1.521,2.9839501,9.550051,,,,,,,,,,,,,,,,,,
1736674584280,-1.57395,2.97,9.576,,,,,,,,,,,,,,,,,,
1736674584290,-1.57095,2.9340003,9.624001,,,,,,,,,,,,,,,,,,
1736674584301,-1.58595,2.8930502,9.74895,,,,,,,,,,,,,,,,,,
1736674584311,-1.6099501,2.8260002,9.916051,,,,,,,,,,,,,,,,,,
1736674584320,-1.6309501,2.83395,9.99495,,,,,,,,,,,,,,,,,,
1736674584330,-1.62195,2.874,9.95895,,,,,,,,,,,,,,,,,,
1736674584340,-1.5330001,2.8600502,9.768001,,,,,,,,,,,,,,,,,,
1736674584351,-1.50705,2.83605,9.519,,,,,,,,,,,,,,,,,,
1736674584360,-1.4779501,2.7949502,9.283951,,,,,,,,,,,,,,,,,,
1736674584371,-1.43295,2.7810001,9.16905,,,,,,,,,,,,,,,,,,
1736674584381,-1.4419501,2.73495,9.162001,,,,,,,,,,,,,,,,,,
1736674584391,-1.4830501,2.66595,9.303,,,,,,,,,,,,,,,,,,
1736674584401,-1.54005,2.59905,9.538051,,,,,,,,,,,,,,,,,,
1736674584411,-1.5499501,2.568,9.658051,,,,,,,,,,,,,,,,,,
1736674584422,-1.5450001,2.6179502,9.64305,,,,,,,,,,,,,,,,,,
1736674584431,-1.5259501,2.7190502,9.564,,,,,,,,,,,,,,,,,,
1736674584441,-1.5160501,2.8189502,9.47295,,,,,,,,,,,,,,,,,,
1736674584451,-1.5690001,2.86695,9.391951,,,,,,,,,,,,,,,,,,
1736674584461,-1.5829501,2.90805,9.354,,,,,,,,,,,,,,,,,,
1736674584472,-1.5880501,2.8860002,9.30105,,,,,,,,,,,,,,,,,,
1736674584481,-1.6030501,2.83095,9.33195,,,,,,,,,,,,,,,,,,
1736674584491,-1.5670501,2.778,9.375,,,,,,,,,,,,,,,,,,
1736674584501,-1.557,2.733,9.351001,,,,,,,,,,,,,,,,,,
1736674581514,,,,-17.7,-46.5,-21.300001,,,,,,,,,,,,,,,
1736674581534,,,,-17.75625,-45.9,-21.6,,,,,,,,,,,,,,,
1736674581554,,,,-17.7,-45.54375,-21.0,,,,,,,,,,,,,,,
1736674581574,,,,-17.643751,-45.1875,-20.8125,,,,,,,,,,,,,,,
1736674581594,,,,-17.5125,-44.8875,-20.94375,,,,,,,,,,,,,,,
1736674581614,,,,-17.94375,-44.756252,-20.94375,,,,,,,,,,,,,,,
1736674581634,,,,-18.0,-44.643753,-21.4125,,,,,,,,,,,,,,,
1736674581655,,,,-18.243752,-44.287502,-21.4125,,,,,,,,,,,,,,,
1736674581674,,,,-17.643751,-43.6875,-21.4125,,,,,,,,,,,,,,,
1736674581695,,,,-16.800001,-43.0875,-21.112501,,,,,,,,,,,,,,,
1736674581714,,,,-16.2,-42.65625,-20.8125,,,,,,,,,,,,,,,
1736674581735,,,,-15.843751,-42.35625,-21.0,,,,,,,,,,,,,,,
1736674581754,,,,-15.900001,-42.487503,-20.94375,,,,,,,,,,,,,,,
1736674581774,,,,-16.2,-42.787502,-21.4125,,,,,,,,,,,,,,,
1736674581795,,,,-16.5,-42.487503,-21.84375,,,,,,,,,,,,,,,
1736674581814,,,,-16.143751,-41.8875,-21.84375,,,,,,,,,,,,,,,
1736674581835,,,,-15.900001,-41.456253,-22.143751,,,,,,,,,,,,,,,
1736674581854,,,,-16.143751,-41.04375,-21.712502,,,,,,,,,,,,,,,
1736674581875,,,,-15.900001,-40.6875,-21.65625,,,,,,,,,,,,,,,
1736674581894,,,,-15.4125,-40.5,-22.143751,,,,,,,,,,,,,,,
1736674581914,,,,-15.4125,-40.443752,-22.25625,,,,,,,,,,,,,,,
1736674581935,,,,-15.000001,-40.0875,-22.743752,,,,,,,,,,,,,,,
1736674581954,,,,-14.812501,-39.9,-22.9125,,,,,,,,,,,,,,,
1736674581974,,,,-15.356251,-39.9,-22.85625,,,,,,,,,,,,,,,
1736674581994,,,,-15.1125,-39.35625,-22.9125,,,,,,,,,,,,,,,
1736674582014,,,,-15.243751,-38.943752,-23.04375,,,,,,,,,,,,,,,
1736674582034,,,,-15.1125,-38.643753,-23.04375,,,,,,,,,,,,,,,
1736674582054,,,,-15.1125,-38.5875,-22.800001,,,,,,,,,,,,,,,
1736674582074,,,,-15.356251,-38.7,-22.85625,,,,,,,,,,,,,,,
1736674582094,,,,-15.000001,-38.8875,-22.85625,,,,,,,,,,,,,,,
1736674582114,,,,-15.243751,-39.1875,-22.85625,,,,,,,,,,,,,,,
1736674582134,,,,-15.1125,-38.7,-23.34375,,,,,,,,,,,,,,,
1736674582154,,,,-15.243751,-38.4,-23.400002,,,,,,,,,,,,,,,
1736674582174,,,,-15.356251,-38.100002,-23.5125,,,,,,,,,,,,,,,
1736674582194,,,,-15.243751,-37.55625,-23.400002,,,,,,,,,,,,,,,
1736674582214,,,,-15.1125,-37.3875,-23.456251,,,,,,,,,,,,,,,
1736674582234,,,,-14.75625,-37.0875,-23.5125,,,,,,,,,,,,,,,
1736674582254,,,,-14.700001,-36.787502,-23.75625,,,,,,,,,,,,,,,
1736674582274,,,,-14.812501,-36.65625,-24.300001,,,,,,,,,,,,,,,
1736674582294,,,,-14.700001,-36.787502,-24.300001,,,,,,,,,,,,,,,
1736674582315,,,,-14.64375,-36.9,-24.54375,,,,,,,,,,,,,,,
1736674582334,,,,-14.94375,-37.0875,-24.243752,,,,,,,,,,,,,,,
1736674582355,,,,-14.512501,-37.0875,-24.243752,,,,,,,,,,,,,,,
1736674582374,,,,-14.94375,-37.0875,-24.900002,,,,,,,,,,,,,,,
1736674582394,,,,-15.000001,-36.84375,-24.956251,,,,,,,,,,,,,,,
1736674582414,,,,-14.700001,-36.487503,-25.743752,,,,,,,,,,,,,,,
1736674582435,,,,-14.75625,-36.35625,-26.400002,,,,,,,,,,,,,,,
1736674582454,,,,-14.64375,-36.54375,-26.343752,,,,,,,,,,,,,,,
1736674582474,,,,-14.812501,-36.54375,-26.643751,,,,,,,,,,,,,,,
1736674582494,,,,-15.4125,-36.9,-27.000002,,,,,,,,,,,,,,,
1736674582514,,,,-15.543751,-37.443752,-27.4125,,,,,,,,,,,,,,,
1736674582534,,,,-15.1125,-37.3875,-27.843752,,,,,,,,,,,,,,,
1736674582555,,,,-15.056251,-37.55625,-28.312502,,,,,,,,,,,,,,,
1736674582574,,,,-14.94375,-37.74375,-28.25625,,,,,,,,,,,,,,,
1736674582594,,,,-15.243751,-37.256252,-27.956251,,,,,,,,,,,,,,,
1736674582615,,,,-15.712501,-37.3875,-27.956251,,,,,,,,,,,,,,,
1736674582634,,,,-16.2,-37.443752,-28.2,,,,,,,,,,,,,,,
1736674582655,,,,-16.5,-37.443752,-28.743752,,,,,,,,,,,,,,,
1736674582674,,,,-16.25625,-37.6875,-29.156252,,,,,,,,,,,,,,,
1736674582694,,,,-16.556252,-37.800003,-29.94375,,,,,,,,,,,,,,,
1736674582715,,,,-16.5,-38.100002,-29.75625,,,,,,,,,,,,,,,
1736674582734,,,,-16.143751,-38.287502,-29.75625,,,,,,,,,,,,,,,
1736674582754,,,,-16.743752,-38.4,-29.94375,,,,,,,,,,,,,,,
1736674582774,,,,-16.612501,-38.643753,-29.7,,,,,,,,,,,,,,,
1736674582794,,,,-16.743752,-38.756252,-29.94375,,,,,,,,,,,,,,,
1736674582815,,,,-17.1,-38.943752,-30.000002,,,,,,,,,,,,,,,
1736674582835,,,,-17.04375,-39.24375,-30.112501,,,,,,,,,,,,,,,
1736674582854,,,,-17.400002,-39.35625,-30.35625,,,,,,,,,,,,,,,
1736674582874,,,,-17.643751,-39.54375,-30.300001,,,,,,,,,,,,,,,
1736674582895,,,,-18.35625,-40.0875,-30.656252,,,,,,,,,,,,,,,
1736674582915,,,,-18.4125,-40.2,-31.143751,,,,,,,,,,,,,,,
1736674582934,,,,-18.300001,-40.2,-30.956251,,,,,,,,,,,,,,,
1736674582954,,,,-18.243752,-40.443752,-31.25625,,,,,,,,,,,,,,,
1736674582974,,,,-17.643751,-40.5,-31.143751,,,,,,,,,,,,,,,
1736674582994,,,,-17.94375,-40.987503,-30.843752,,,,,,,,,,,,,,,
1736674583014,,,,-18.243752,-41.287502,-30.900002,,,,,,,,,,,,,,,
1736674583034,,,,-18.54375,-41.643753,-30.843752,,,,,,,,,,,,,,,
1736674583055,,,,-18.84375,-41.643753,-30.712502,,,,,,,,,,,,,,,
1736674583075,,,,-19.0125,-41.456253,-30.54375,,,,,,,,,,,,,,,
1736674583094,,,,-19.0125,-41.8875,-30.4125,,,,,,,,,,,,,,,
1736674583115,,,,-19.3125,-41.943752,-30.712502,,,,,,,,,,,,,,,
1736674583135,,,,-19.3125,-42.54375,-30.900002,,,,,,,,,,,,,,,
1736674583154,,,,-19.0125,-42.84375,-30.712502,,,,,,,,,,,,,,,
1736674583174,,,,-19.143751,-42.9,-30.843752,,,,,,,,,,,,,,,
1736674583195,,,,-18.900002,-42.956253,-30.712502,,,,,,,,,,,,,,,
1736674583214,,,,-18.84375,-43.0875,-30.656252,,,,,,,,,,,,,,,
1736674583234,,,,-18.956251,-43.3875,-30.900002,,,,,,,,,,,,,,,
1736674583255,,,,-19.0125,-43.443752,-30.656252,,,,,,,,,,,,,,,
1736674583274,,,,-19.3125,-43.55625,-30.6,,,,,,,,,,,,,,,
1736674583294,,,,-19.25625,-43.85625,-30.6,,,,,,,,,,,,,,,
1736674583315,,,,-19.0125,-43.74375,-30.656252,,,,,,,,,,,,,,,
1736674583335,,,,-18.712502,-44.34375,-30.712502,,,,,,,,,,,,,,,
1736674583355,,,,-18.243752,-44.756252,-30.54375,,,,,,,,,,,,,,,
1736674583374,,,,-18.243752,-44.5875,-30.35625,,,,,,,,,,,,,,,
1736674583395,,,,-18.4125,-45.24375,-30.056252,,,,,,,,,,,,,,,
1736674583414,,,,-18.35625,-45.05625,-30.112501,,,,,,,,,,,,,,,
1736674583434,,,,-18.54375,-44.8875,-30.112501,,,,,,,,,,,,,,,
1736674583454,,,,-18.4125,-44.8875,-29.643751,,,,,,,,,,,,,,,
1736674583474,,,,-18.54375,-44.7,-29.5125,,,,,,,,,,,,,,,
1736674583494,,,,-18.056252,-44.456253,-29.343752,,,,,,,,,,,,,,,
1736674583515,,,,-17.8125,-44.8875,-29.400002,,,,,,,,,,,,,,,
1736674583535,,,,-17.5125,-45.0,-29.5125,,,,,,,,,,,,,,,
1736674583554,,,,-17.04375,-45.0,-29.456251,,,,,,,,,,,,,,,
1736674583574,,,,-17.1,-45.300003,-29.1,,,,,,,,,,,,,,,
1736674583594,,,,-16.9125,-45.1875,-28.612501,,,,,,,,,,,,,,,
1736674583614,,,,-16.612501,-45.300003,-28.44375,,,,,,,,,,,,,,,
1736674583634,,,,-16.2,-45.24375,-27.956251,,,,,,,,,,,,,,,
1736674583654,,,,-15.900001,-45.24375,-27.900002,,,,,,,,,,,,,,,
1736674583674,,,,-15.3,-45.0,-27.54375,,,,,,,,,,,,,,,
1736674583694,,,,-14.75625,-44.756252,-27.54375,,,,,,,,,,,,,,,
1736674583714,,,,-14.212501,-44.5875,-27.54375,,,,,,,,,,,,,,,
1736674583735,,,,-13.9125,-44.5875,-27.300001,,,,,,,,,,,,,,,
1736674583754,,,,-13.500001,-44.5875,-27.35625,,,,,,,,,,,,,,,
1736674583774,,,,-12.95625,-44.34375,-26.94375,,,,,,,,,,,,,,,
1736674583794,,,,-12.543751,-44.15625,-26.156252,,,,,,,,,,,,,,,
1736674583815,,,,-11.8125,-43.74375,-25.85625,,,,,,,,,,,,,,,
1736674583835,,,,-11.512501,-43.6875,-25.25625,,,,,,,,,,,,,,,
1736674583855,,,,-11.512501,-43.55625,-24.843752,,,,,,,,,,,,,,,
1736674583874,,,,-11.700001,-43.2,-24.843752,,,,,,,,,,,,,,,
1736674583894,,,,-11.400001,-43.0875,-24.656252,,,,,,,,,,,,,,,
1736674583914,,,,-11.15625,-42.0,-24.300001,,,,,,,,,,,,,,,
1736674583934,,,,-10.9125,-41.643753,-24.056252,,,,,,,,,,,,,,,
1736674583954,,,,-10.25625,-41.15625,-23.7,,,,,,,,,,,,,,,
1736674583974,,,,-10.200001,-40.74375,-22.9125,,,,,,,,,,,,,,,
1736674583994,,,,-9.712501,-40.800003,-22.800001,,,,,,,,,,,,,,,
1736674584015,,,,-9.900001,-40.443752,-22.44375,,,,,,,,,,,,,,,
1736674584034,,,,-10.200001,-40.2,-21.956251,,,,,,,,,,,,,,,
1736674584054,,,,-10.14375,-39.54375,-21.54375,,,,,,,,,,,,,,,
1736674584075,,,,-10.25625,-38.943752,-21.0,,,,,,,,,,,,,,,
1736674584095,,,,-9.6,-38.4,-20.643751,,,,,,,,,,,,,,,
1736674584114,,,,-9.6,-37.800003,-20.456251,,,,,,,,,,,,,,,
1736674584134,,,,-9.6,-37.443752,-20.400002,,,,,,,,,,,,,,,
1736674584154,,,,-9.4125,-36.787502,-20.15625,,,,,,,,,,,,,,,
1736674584174,,,,-9.95625,-36.05625,-19.9125,,,,,,,,,,,,,,,
1736674584195,,,,-9.84375,-35.4,-20.15625,,,,,,,,,,,,,,,
1736674584215,,,,-9.84375,-34.85625,-20.34375,,,,,,,,,,,,,,,
1736674584235,,,,-10.012501,-34.6875,-20.212502,,,,,,,,,,,,,,,
1736674584254,,,,-9.84375,-34.143753,-20.456251,,,,,,,,,,,,,,,
1736674584274,,,,-9.95625,-33.787502,-19.9125,,,,,,,,,,,,,,,
1736674584294,,,,-9.712501,-33.24375,-19.612501,,,,,,,,,,,,,,,
1736674584314,,,,-9.65625,-32.756252,-19.556252,,,,,,,,,,,,,,,
1736674584334,,,,-9.84375,-32.5875,-19.143751,,,,,,,,,,,,,,,
1736674584354,,,,-9.900001,-32.4,-19.2,,,,,,,,,,,,,,,
1736674584374,,,,-10.44375,-32.287502,-19.143751,,,,,,,,,,,,,,,
1736674584394,,,,-10.6125,-32.34375,-19.2,,,,,,,,,,,,,,,
1736674584414,,,,-10.3125,-32.100002,-19.612501,,,,,,,,,,,,,,,
1736674584434,,,,-10.5,-31.85625,-19.9125,,,,,,,,,,,,,,,
1736674584454,,,,-10.556251,-31.800001,-20.212502,,,,,,,,,,,,,,,
1736674584474,,,,-10.6125,-31.743752,-20.212502,,,,,,,,,,,,,,,
1736674584494,,,,-11.212501,-31.987501,-20.15625,,,,,,,,,,,,,,,
1736674581489,,,,,,,-0.266143,2.512374,9.475627,,,,,,,,,,,,
1736674581499,,,,,,,-0.268372,2.539026,9.468455,,,,,,,,,,,,
1736674581509,,,,,,,-0.26253,2.557096,9.463757,,,,,,,,,,,,
1736674581518,,,,,,,-0.262024,2.593239,9.453931,,,,,,,,,,,,
1736674581528,,,,,,,-0.26289,2.61331,9.44838,,,,,,,,,,,,
1736674581538,,,,,,,-0.253639,2.642613,9.440478,,,,,,,,,,,,
1736674581548,,,,,,,-0.252999,2.66481,9.434256,,,,,,,,,,,,
1736674581558,,,,,,,-0.231993,2.670795,9.433102,,,,,,,,,,,,
1736674581568,,,,,,,-0.220224,2.681301,9.430403,,,,,,,,,,,,
1736674581578,,,,,,,-0.20716,2.661217,9.436386,,,,,,,,,,,,
1736674581588,,,,,,,-0.193625,2.652589,9.439102,,,,,,,,,,,,
1736674581599,,,,,,,-0.188246,2.626957,9.446378,,,,,,,,,,,,
1736674581608,,,,,,,-0.18041,2.607325,9.451967,,,,,,,,,,,,
1736674581619,,,,,,,-0.184792,2.590154,9.456604,,,,,,,,,,,,
1736674581629,,,,,,,-0.185223,2.575528,9.460589,,,,,,,,,,,,
1736674581639,,,,,,,-0.195674,2.571681,9.461424,,,,,,,,,,,,
1736674581649,,,,,,,-0.200119,2.564293,9.463337,,,,,,,,,,,,
1736674581659,,,,,,,-0.208204,2.571535,9.461196,,,,,,,,,,,,
1736674581669,,,,,,,-0.214926,2.576139,9.459794,,,,,,,,,,,,
1736674581680,,,,,,,-0.220687,2.587356,9.456598,,,,,,,,,,,,
1736674581690,,,,,,,-0.222912,2.598127,9.453595,,,,,,,,,,,,
1736674581699,,,,,,,-0.229877,2.61226,9.44953,,,,,,,,,,,,
1736674581710,,,,,,,-0.234202,2.620081,9.44726,,,,,,,,,,,,
1736674581719,,,,,,,-0.243464,2.630458,9.444141,,,,,,,,,,,,
1736674581729,,,,,,,-0.255544,2.640267,9.441084,,,,,,,,,,,,
1736674581740,,,,,,,-0.257608,2.648567,9.438703,,,,,,,,,,,,
1736674581750,,,,,,,-0.262133,2.65417,9.437005,,,,,,,,,,,,
1736674581759,,,,,,,-0.26768,2.655541,9.436462,,,,,,,,,,,,
1736674581770,,,,,,,-0.268401,2.657863,9.435789,,,,,,,,,,,,
1736674581779,,,,,,,-0.269084,2.651954,9.437431,,,,,,,,,,,,
1736674581789,,,,,,,-0.271823,2.648185,9.438413,,,,,,,,,,,,
1736674581799,,,,,,,-0.273042,2.639083,9.440925,,,,,,,,,,,,
1736674581810,,,,,,,-0.275038,2.63133,9.443031,,,,,,,,,,,,
1736674581819,,,,,,,-0.273188,2.627874,9.444047,,,,,,,,,,,,
1736674581830,,,,,,,-0.270468,2.622414,9.445644,,,,,,,,,,,,
1736674581839,,,,,,,-0.273821,2.625541,9.444678,,,,,,,,,,,,
1736674581850,,,,,,,-0.274341,2.626875,9.444293,,,,,,,,,,,,
1736674581860,,,,,,,-0.290424,2.625577,9.44417,,,,,,,,,,,,
1736674581870,,,,,,,-0.302746,2.629388,9.442723,,,,,,,,,,,,
1736674581881,,,,,,,-0.316262,2.627588,9.442782,,,,,,,,,,,,
1736674581890,,,,,,,-0.325485,2.627498,9.442494,,,,,,,,,,,,
1736674581901,,,,,,,-0.33083,2.625817,9.442777,,,,,,,,,,,,
1736674581910,,,,,,,-0.33494,2.628145,9.441984,,,,,,,,,,,,
1736674581920,,,,,,,-0.332663,2.637959,9.439326,,,,,,,,,,,,
1736674581930,,,,,,,-0.335924,2.643138,9.437761,,,,,,,,,,,,
1736674581940,,,,,,,-0.331115,2.653746,9.434955,,,,,,,,,,,,
1736674581950,,,,,,,-0.328434,2.66391,9.432183,,,,,,,,,,,,
1736674581960,,,,,,,-0.318066,2.676939,9.428848,,,,,,,,,,,,
1736674581971,,,,,,,-0.308379,2.685124,9.426843,,,,,,,,,,,,
1736674581980,,,,,,,-0.288705,2.692091,9.425479,,,,,,,,,,,,
1736674581991,,,,,,,-0.279397,2.699797,9.423555,,,,,,,,,,,,
1736674582001,,,,,,,-0.243065,2.703926,9.423379,,,,,,,,,,,,
1736674582011,,,,,,,-0.236413,2.702742,9.423887,,,,,,,,,,,,
1736674582020,,,,,,,-0.245773,2.689976,9.427301,,,,,,,,,,,,
1736674582031,,,,,,,-0.21664,2.686137,9.429111,,,,,,,,,,,,
1736674582040,,,,,,,-0.224171,2.684588,9.429375,,,,,,,,,,,,
1736674582050,,,,,,,-0.234663,2.67638,9.431454,,,,,,,,,,,,
1736674582060,,,,,,,-0.225779,2.687868,9.428402,,,,,,,,,,,,
1736674582071,,,,,,,-0.225552,2.697154,9.425756,,,,,,,,,,,,
1736674582082,,,,,,,-0.219471,2.70593,9.423385,,,,,,,,,,,,
1736674582091,,,,,,,-0.214647,2.716749,9.420382,,,,,,,,,,,,
1736674582102,,,,,,,-0.208856,2.70984,9.4225,,,,,,,,,,,,
1736674582111,,,,,,,-0.199789,2.710027,9.422644,,,,,,,,,,,,
1736674582121,,,,,,,-0.187242,2.704146,9.424591,,,,,,,,,,,,
1736674582132,,,,,,,-0.179847,2.697068,9.426764,,,,,,,,,,,,
1736674582141,,,,,,,-0.174889,2.693126,9.427982,,,,,,,,,,,,
1736674582151,,,,,,,-0.168243,2.687996,9.429568,,,,,,,,,,,,
1736674582162,,,,,,,-0.161733,2.68523,9.430471,,,,,,,,,,,,
1736674582171,,,,,,,-0.154987,2.681043,9.431773,,,,,,,,,,,,
1736674582182,,,,,,,-0.149362,2.687715,9.429964,,,,,,,,,,,,
1736674582191,,,,,,,-0.145168,2.6948,9.428008,,,,,,,,,,,,
1736674582201,,,,,,,-0.161706,2.701844,9.425723,,,,,,,,,,,,
1736674582211,,,,,,,-0.16948,2.710935,9.422974,,,,,,,,,,,,
1736674582221,,,,,,,-0.190979,2.727599,9.417751,,,,,,,,,,,,
1736674582231,,,,,,,-0.209424,2.737826,9.41439,,,,,,,,,,,,
1736674582241,,,,,,,-0.217651,2.773203,9.403843,,,,,,,,,,,,
1736674582251,,,,,,,-0.220278,2.792063,9.398201,,,,,,,,,,,,
1736674582261,,,,,,,-0.225295,2.834315,9.385427,,,,,,,,,,,,
1736674582272,,,,,,,-0.229833,2.862813,9.376664,,,,,,,,,,,,
1736674582281,,,,,,,-0.23645,2.89137,9.367734,,,,,,,,,,,,
1736674582291,,,,,,,-0.247406,2.92015,9.358521,,,,,,,,,,,,
1736674582301,,,,,,,-0.260901,2.92335,9.357155,,,,,,,,,,,,
1736674582312,,,,,,,-0.270604,2.934517,9.353382,,,,,,,,,,,,
1736674582322,,,,,,,-0.29007,2.932397,9.353463,,,,,,,,,,,,
1736674582332,,,,,,,-0.306121,2.928963,9.354028,,,,,,,,,,,,
1736674582342,,,,,,,-0.322563,2.937576,9.350774,,,,,,,,,,,,
1736674582352,,,,,,,-0.332326,2.939918,9.349696,,,,,,,,,,,,
1736674582362,,,,,,,-0.341527,2.95743,9.34384,,,,,,,,,,,,
1736674582372,,,,,,,-0.35204,2.966079,9.340709,,,,,,,,,,,,
1736674582382,,,,,,,-0.357871,2.971551,9.338747,,,,,,,,,,,,
1736674582392,,,,,,,-0.364862,2.983823,9.334563,,,,,,,,,,,,
1736674582402,,,,,,,-0.376883,2.97512,9.336862,,,,,,,,,,,,
1736674582412,,,,,,,-0.384256,2.974383,9.336796,,,,,,,,,,,,
1736674582422,,,,,,,-0.39544,2.965068,9.339293,,,,,,,,,,,,
1736674582433,,,,,,,-0.398136,2.956568,9.341871,,,,,,,,,,,,
1736674582443,,,,,,,-0.392979,2.960045,9.340988,,,,,,,,,,,,
1736674582452,,,,,,,-0.3929,2.956323,9.34217,,,,,,,,,,,,
1736674582462,,,,,,,-0.389802,2.961005,9.340818,,,,,,,,,,,,
1736674582472,,,,,,,-0.38561,2.966439,9.339268,,,,,,,,,,,,
1736674582482,,,,,,,-0.392106,2.968308,9.338403,,,,,,,,,,,,
1736674582493,,,,,,,-0.401822,2.973421,9.336363,,,,,,,,,,,,
1736674582502,,,,,,,-0.416349,2.975526,9.335054,,,,,,,,,,,,
1736674582513,,,,,,,-0.424782,2.978143,9.333841,,,,,,,,,,,,
1736674582523,,,,,,,-0.432977,2.986066,9.330933,,,,,,,,,,,,
1736674582532,,,,,,,-0.436914,2.98501,9.331087,,,,,,,,,,,,
1736674582543,,,,,,,-0.439018,2.992229,9.328678,,,,,,,,,,,,
1736674582554,,,,,,,-0.441583,2.996247,9.327266,,,,,,,,,,,,
1736674582564,,,,,,,-0.427086,2.993307,9.328885,,,,,,,,,,,,
1736674582573,,,,,,,-0.420821,2.997595,9.327794,,,,,,,,,,,,
1736674582583,,,,,,,-0.411663,2.99364,9.329472,,,,,,,,,,,,
1736674582593,,,,,,,-0.404968,2.99044,9.330791,,,,,,,,,,,,
1736674582603,,,,,,,-0.403996,2.989024,9.331287,,,,,,,,,,,,
1736674582613,,,,,,,-0.400673,2.987487,9.331923,,,,,,,,,,,,
1736674582624,,,,,,,-0.395754,2.981573,9.334023,,,,,,,,,,,,
1736674582633,,,,,,,-0.393849,2.980041,9.334593,,,,,,,,,,,,
1736674582643,,,,,,,-0.378278,2.975111,9.336808,,,,,,,,,,,,
1736674582653,,,,,,,-0.365985,2.969386,9.33912,,,,,,,,,,,,
1736674582664,,,,,,,-0.346895,2.97003,9.339645,,,,,,,,,,,,
1736674582673,,,,,,,-0.333907,2.970221,9.340057,,,,,,,,,,,,
1736674582684,,,,,,,-0.320339,2.966546,9.341701,,,,,,,,,,,,
1736674582693,,,,,,,-0.309712,2.96673,9.342001,,,,,,,,,,,,
1736674582703,,,,,,,-0.311213,2.957859,9.344763,,,,,,,,,,,,
1736674582713,,,,,,,-0.307257,2.948595,9.347822,,,,,,,,,,,,
1736674582723,,,,,,,-0.31018,2.947266,9.348144,,,,,,,,,,,,
1736674582734,,,,,,,-0.312069,2.944389,9.348989,,,,,,,,,,,,
1736674582743,,,,,,,-0.309884,2.952376,9.34654,,,,,,,,,,,,
1736674582753,,,,,,,-0.308589,2.95677,9.345195,,,,,,,,,,,,
1736674582764,,,,,,,-0.309458,2.971934,9.340355,,,,,,,,,,,,
1736674582775,,,,,,,-0.309156,2.983642,9.336631,,,,,,,,,,,,
1736674582784,,,,,,,-0.311591,2.999894,9.331342,,,,,,,,,,,,
1736674582794,,,,,,,-0.315773,3.011783,9.32737,,,,,,,,,,,,
1736674582804,,,,,,,-0.306014,3.021201,9.32465,,,,,,,,,,,,
1736674582814,,,,,,,-0.304458,3.0325,9.321033,,,,,,,,,,,,
1736674582825,,,,,,,-0.29398,3.034183,9.32082,,,,,,,,,,,,
1736674582834,,,,,,,-0.285174,3.037174,9.320122,,,,,,,,,,,,
1736674582844,,,,,,,-0.276108,3.029731,9.322815,,,,,,,,,,,,
1736674582854,,,,,,,-0.268167,3.025813,9.324318,,,,,,,,,,,,
1736674582864,,,,,,,-0.255721,3.016116,9.327809,,,,,,,,,,,,
1736674582874,,,,,,,-0.246799,3.006505,9.331152,,,,,,,,,,,,
1736674582884,,,,,,,-0.236193,3.00257,9.332693,,,,,,,,,,,,
1736674582894,,,,,,,-0.222904,2.99686,9.334855,,,,,,,,,,,,
1736674582904,,,,,,,-0.219465,2.996936,9.334913,,,,,,,,,,,,
1736674582914,,,,,,,-0.216522,2.996266,9.335196,,,,,,,,,,,,
1736674582925,,,,,,,-0.214755,2.997527,9.334834,,,,,,,,,,,,
1736674582934,,,,,,,-0.212935,3.000935,9.333778,,,,,,,,,,,,
1736674582945,,,,,,,-0.210604,3.009232,9.331161,,,,,,,,,,,,
1736674582954,,,,,,,-0.208714,3.01367,9.329771,,,,,,,,,,,,
1736674582964,,,,,,,-0.197073,3.023164,9.326952,,,,,,,,,,,,
1736674582974,,,,,,,-0.190218,3.027549,9.325672,,,,,,,,,,,,
1736674582985,,,,,,,-0.184116,3.037358,9.322602,,,,,,,,,,,,
1736674582995,,,,,,,-0.17581,3.043107,9.320889,,,,,,,,,,,,
1736674583006,,,,,,,-0.173896,3.044939,9.320327,,,,,,,,,,,,
1736674583015,,,,,,,-0.172374,3.049081,9.318999,,,,,,,,,,,,
1736674583025,,,,,,,-0.171686,3.043596,9.320805,,,,,,,,,,,,
1736674583035,,,,,,,-0.173705,3.042974,9.320971,,,,,,,,,,,,
1736674583045,,,,,,,-0.16787,3.032101,9.324622,,,,,,,,,,,,
1736674583055,,,,,,,-0.161062,3.024462,9.327222,,,,,,,,,,,,
1736674583066,,,,,,,-0.154383,3.018726,9.329192,,,,,,,,,,,,
1736674583076,,,,,,,-0.149436,3.009296,9.33232,,,,,,,,,,,,
1736674583085,,,,,,,-0.14418,2.997818,9.336095,,,,,,,,,,,,
1736674583095,,,,,,,-0.128946,2.991837,9.338236,,,,,,,,,,,,
1736674583106,,,,,,,-0.126547,2.980845,9.341784,,,,,,,,,,,,
1736674583116,,,,,,,-0.128374,2.968456,9.345702,,,,,,,,,,,,
1736674583125,,,,,,,-0.115352,2.963355,9.347491,,,,,,,,,,,,
1736674583136,,,,,,,-0.107729,2.963476,9.347545,,,,,,,,,,,,
1736674583145,,,,,,,-0.100758,2.965912,9.346848,,,,,,,,,,,,
1736674583156,,,,,,,-0.098279,2.967205,9.346465,,,,,,,,,,,,
1736674583165,,,,,,,-0.099798,2.961625,9.348221,,,,,,,,,,,,
1736674583175,,,,,,,-0.09632,2.959775,9.348842,,,,,,,,,,,,
1736674583186,,,,,,,-0.092336,2.958392,9.349319,,,,,,,,,,,,
1736674583195,,,,,,,-0.091566,2.953644,9.350829,,,,,,,,,,,,
1736674583205,,,,,,,-0.084825,2.95996,9.348894,,,,,,,,,,,,
1736674583215,,,,,,,-0.079543,2.960843,9.348661,,,,,,,,,,,,
1736674583226,,,,,,,-0.065769,2.961389,9.348596,,,,,,,,,,,,
1736674583236,,,,,,,-0.056865,2.964585,9.34764,,,,,,,,,,,,
1736674583246,,,,,,,-0.04471,2.956877,9.350146,,,,,,,,,,,,
1736674583256,,,,,,,-0.032579,2.952053,9.351723,,,,,,,,,,,,
1736674583266,,,,,,,-0.01855,2.939577,9.35569,,,,,,,,,,,,
1736674583276,,,,,,,-0.007369,2.932316,9.357983,,,,,,,,,,,,
1736674583286,,,,,,,0.002926,2.922315,9.361114,,,,,,,,,,,,
1736674583296,,,,,,,0.012565,2.913243,9.363932,,,,,,,,,,,,
1736674583306,,,,,,,0.019883,2.902041,9.367397,,,,,,,,,,,,
1736674583317,,,,,,,0.033508,2.893253,9.370078,,,,,,,,,,,,
1736674583327,,,,,,,0.039521,2.881036,9.373816,,,,,,,,,,,,
1736674583336,,,,,,,0.042547,2.871959,9.376589,,,,,,,,,,,,
1736674583346,,,,,,,0.060739,2.862192,9.379475,,,,,,,,,,,,
1736674583356,,,,,,,0.073291,2.856546,9.381107,,,,,,,,,,,,
1736674583366,,,,,,,0.085881,2.845788,9.384268,,,,,,,,,,,,
1736674583376,,,,,,,0.09357,2.839802,9.386009,,,,,,,,,,,,
1736674583386,,,,,,,0.108707,2.829057,9.38909,,,,,,,,,,,,
1736674583396,,,,,,,0.120343,2.817502,9.392421,,,,,,,,,,,,
1736674583406,,,,,,,0.125003,2.806249,9.395729,,,,,,,,,,,,
1736674583416,,,,,,,0.130731,2.790399,9.40037,,,,,,,,,,,,
1736674583426,,,,,,,0.111395,2.772616,9.405878,,,,,,,,,,,,
1736674583436,,,,,,,0.103167,2.763047,9.408785,,,,,,,,,,,,
1736674583446,,,,,,,0.062978,2.740007,9.415876,,,,,,,,,,,,
1736674583457,,,,,,,0.034464,2.725243,9.420306,,,,,,,,,,,,
1736674583467,,,,,,,0.001898,2.71689,9.422783,,,,,,,,,,,,
1736674583477,,,,,,,-0.023728,2.708933,9.425045,,,,,,,,,,,,
1736674583487,,,,,,,-0.051245,2.726187,9.419956,,,,,,,,,,,,
1736674583497,,,,,,,-0.073778,2.732275,9.418045,,,,,,,,,,,,
1736674583507,,,,,,,-0.086498,2.764244,9.408604,,,,,,,,,,,,
1736674583517,,,,,,,-0.105073,2.786951,9.401714,,,,,,,,,,,,
1736674583528,,,,,,,-0.101297,2.80873,9.395272,,,,,,,,,,,,
1736674583537,,,,,,,-0.105776,2.831777,9.388302,,,,,,,,,,,,
1736674583547,,,,,,,-0.090426,2.840521,9.38582,,,,,,,,,,,,
1736674583558,,,,,,,-0.079114,2.852149,9.382396,,,,,,,,,,,,
1736674583567,,,,,,,-0.058149,2.846839,9.384162,,,,,,,,,,,,
1736674583577,,,,,,,-0.041156,2.845474,9.384667,,,,,,,,,,,,
1736674583588,,,,,,,-0.020445,2.831455,9.388972,,,,,,,,,,,,
1736674583597,,,,,,,-0.006142,2.818354,9.392934,,,,,,,,,,,,
1736674583607,,,,,,,-0.003372,2.790059,9.40138,,,,,,,,,,,,
1736674583618,,,,,,,0.017121,2.771571,9.406831,,,,,,,,,,,,
1736674583627,,,,,,,0.017515,2.749311,9.413362,,,,,,,,,,,,
1736674583637,,,,,,,0.015578,2.72925,9.419198,,,,,,,,,,,,
1736674583647,,,,,,,0.010863,2.725713,9.42023,,,,,,,,,,,,
1736674583657,,,,,,,0.002737,2.720712,9.42168,,,,,,,,,,,,
1736674583668,,,,,,,-0.023453,2.723782,9.420763,,,,,,,,,,,,
1736674583677,,,,,,,-0.036233,2.727803,9.419559,,,,,,,,,,,,
1736674583688,,,,,,,-0.062397,2.729956,9.418797,,,,,,,,,,,,
1736674583699,,,,,,,-0.083386,2.72998,9.418629,,,,,,,,,,,,
1736674583708,,,,,,,-0.109497,2.736448,9.416485,,,,,,,,,,,,
1736674583718,,,,,,,-0.126651,2.735247,9.416621,,,,,,,,,,,,
1736674583728,,,,,,,-0.164204,2.755194,9.410221,,,,,,,,,,,,
1736674583738,,,,,,,-0.187078,2.758976,9.408687,,,,,,,,,,,,
1736674583748,,,,,,,-0.223352,2.780591,9.401532,,,,,,,,,,,,
1736674583758,,,,,,,-0.256288,2.798548,9.395361,,,,,,,,,,,,
1736674583769,,,,,,,-0.284718,2.817065,9.389007,,,,,,,,,,,,
1736674583778,,,,,,,-0.312461,2.83412,9.38299,,,,,,,,,,,,
